File: csv_library/FTIR_CLAY_03.csv
Database of Origin,University of Winnipeg Spectrophotometer Facility
Sample Description,See Master Clays in HOSERLab database
Date Added,2016-12-11 20:56:55.133

Data ID,FTIR_CLAY_03
Sample ID,CHM102
Mineral Name,Chamosite
Grain Size,<45 m
Viewing Geometry,35/0
Resolution,11-72 nm
Material Class,Phyllosilicate

Wavelength
2001.142,0.50205
2003.474,0.502426
2005.812,0.503371
2008.155,0.50436
2010.504,0.505305
2012.858,0.506907
2015.217,0.50729
2017.582,0.508714
2019.952,0.50946
2022.328,0.510122
2024.709,0.511249
2027.096,0.512494
2029.488,0.513239
2031.886,0.5136167
2034.289,0.514467
2036.698,0.515255
2039.113,0.5162695
2041.533,0.516888
2043.959,0.517984
2046.391,0.518727
2048.828,0.519709
2051.271,0.5198845
2053.72,0.520575
2056.175,0.520848
2058.635,0.522299
2061.101,0.523145
2063.573,0.524153
2066.051,0.525111
2068.534,0.524967
2071.024,0.525977
2073.519,0.526204
2076.02,0.526353
2078.528,0.526304
2081.041,0.527261
2083.56,0.528641
2086.085,0.528926
2088.617,0.529587
2091.154,0.530203
2093.697,0.530801
2096.247,0.531593
2098.803,0.532335
2101.364,0.533213
2103.932,0.534248
2106.506,0.535472
2109.087,0.536216
2111.673,0.5364572
2114.266,0.536991
2116.865,0.537744
2119.471,0.538563
2122.082,0.538146
2124.7,0.538597
2127.325,0.537679
2129.956,0.5368946
2132.593,0.537811
2135.237,0.538514
2137.887,0.53855
2140.544,0.538992
2143.207,0.539012
2145.876,0.539082
2148.553,0.539149
2151.235,0.540131
2153.925,0.540131
2156.621,0.540104
2159.324,0.539795
2162.033,0.53962
2164.749,0.540238
2167.472,0.5406798
2170.202,0.540007
2172.938,0.5403349
2175.682,0.5397718
2178.432,0.539131
2181.189,0.53883
2183.952,0.538494
2186.723,0.537814
2189.501,0.5375323
2192.285,0.537542
2195.077,0.5365146
2197.876,0.53643
2200.682,0.536307
2203.494,0.535375
2206.314,0.533652
2209.141,0.5335424
2211.975,0.532677
2214.817,0.5315669
2217.665,0.530125
2220.521,0.529636
2223.384,0.527952
2226.254,0.526799
2229.132,0.525821
2232.017,0.523548
2234.91,0.521849
2237.809,0.519942
2240.717,0.517078
2243.631,0.515259
2246.554,0.511969
2249.483,0.509521
2252.421,0.507352
2255.365,0.5052294
2258.318,0.504002
2261.278,0.501532
2264.246,0.500406
2267.221,0.498801
2270.204,0.4975383
2273.195,0.496215
2276.194,0.493768
2279.201,0.491606
2282.215,0.490868
2285.237,0.489207
2288.268,0.487677
2291.306,0.486312
2294.352,0.484871
2297.406,0.4838327
2300.468,0.482801
2303.539,0.4819147
2306.617,0.480932
2309.703,0.480565
2312.798,0.4792608
2315.901,0.478743
2319.012,0.47807
2322.131,0.477063
2325.259,0.475991
2328.395,0.4745664
2331.54,0.473173
2334.692,0.471684
2337.854,0.470523
2341.023,0.468934
2344.201,0.467692
2347.388,0.466647
2350.583,0.465878
2353.787,0.465711
2357.0,0.466077
2360.221,0.465898
2363.451,0.467126
2366.69,0.468012
2369.937,0.468455
2373.194,0.468892
2376.459,0.46954
2379.733,0.47025
2383.016,0.471415
2386.308,0.472148
2389.609,0.473062
2392.919,0.473693
2396.238,0.474333
2399.566,0.474818
2402.903,0.475208
2406.25,0.4752487
2409.606,0.474983
2412.971,0.475161
2416.345,0.475033
2419.729,0.474792
2423.122,0.4740523
2426.524,0.473334
2429.936,0.473021
2433.358,0.472914
2436.789,0.472283
2440.229,0.471801
2443.679,0.471198
2447.139,0.470777
2450.609,0.469455
2454.088,0.468136
2457.577,0.466984
2461.076,0.465546
2464.585,0.464226
2468.104,0.463085
2471.632,0.461518
2475.171,0.459825
2478.72,0.458084
2482.278,0.456902
2485.847,0.455444
2489.427,0.454281
2493.016,0.452927
2496.615,0.452425
2500.225,0.451308
2503.845,0.450931
2507.476,0.449678
2511.117,0.449304
2514.769,0.448799
2518.431,0.447717
2522.103,0.4470276
2525.787,0.446857
2529.48,0.446218
2533.185,0.445901
2536.9,0.446202
2540.627,0.446243
2544.364,0.446144
2548.112,0.446323
2551.87,0.446597
2555.64,0.445796
2559.421,0.446339
2563.213,0.447241
2567.016,0.446329
2570.831,0.446852
2574.656,0.446746
2578.493,0.445761
2582.342,0.446476
2586.201,0.446037
2590.072,0.444149
2593.955,0.447628
2597.849,0.443259
2601.755,0.442795
2605.672,0.443002
2609.601,0.439956
2613.542,0.438473
2617.495,0.438799
2621.459,0.436844
2625.435,0.434896
2629.424,0.4346968
2633.424,0.431758
2637.437,0.429419
2641.461,0.42706
2645.498,0.42503
2649.547,0.422393
2653.609,0.419279
2657.682,0.415223
2661.768,0.411912
2665.867,0.4106645
2669.978,0.406521
2674.102,0.398378
2678.238,0.392974
2682.387,0.383167
2686.549,0.374754
2690.724,0.3642
2694.911,0.356086
2699.112,0.342926
2703.325,0.331543
2707.552,0.31866
2711.791,0.304441
2716.044,0.276686
2720.31,0.255731
2724.589,0.2222443
2728.882,0.183307
2733.188,0.151624
2737.508,0.123355
2741.841,0.100602
2746.188,0.08021431
2750.549,0.06680591
2754.923,0.05906361
2759.311,0.05103173
2763.713,0.04689099
2768.129,0.04329896
2772.559,0.04059232
2777.003,0.03855898
2781.461,0.03735824
2785.934,0.03643396
2790.42,0.03534925
2794.922,0.03461862
2799.437,0.03412422
2803.967,0.03431617
2808.512,0.03333236
2813.071,0.03367194
2817.645,0.03443653
2822.233,0.03372017
2826.837,0.03389427
2831.455,0.03406187
2836.089,0.03446066
2840.737,0.0341888
2845.401,0.03429488
2850.08,0.03390538
2854.774,0.03438696
2859.484,0.03415762
2864.209,0.03420288
2868.949,0.03422629
2873.705,0.03381267
2878.477,0.03352111
2883.265,0.0332275
2888.068,0.03279016
2892.887,0.03282936
2897.723,0.03258071
2902.574,0.03241062
2907.441,0.03202198
2912.325,0.03219193
2917.225,0.03248508
2922.142,0.03247423
2927.075,0.03146419
2932.024,0.03168028
2936.99,0.03183696
2941.973,0.0322858
2946.973,0.03332896
2951.989,0.03334945
2957.023,0.03363002
2962.073,0.03291956
2967.141,0.03334267
2972.226,0.03380481
2977.328,0.03524613
2982.448,0.03475172
2987.586,0.03503343
2992.74,0.03633964
2997.913,0.03639257
3003.103,0.03760502
3008.312,0.03764276
3013.538,0.03881232
3018.782,0.03921154
3024.044,0.03978491
3029.325,0.04111586
3034.624,0.0429595
3039.942,0.0422059
3045.278,0.04358156
3050.632,0.04378976
3056.006,0.04432877
3061.398,0.04512072
3066.809,0.04614331
3072.239,0.04615016
3077.689,0.04703038
3083.157,0.04776755
3088.645,0.04877959
3094.153,0.04902949
3099.679,0.05002465
3105.226,0.05038201
3110.792,0.05076423
3116.378,0.05144387
3121.985,0.05228271
3127.611,0.05329454
3133.257,0.05388156
3138.924,0.05449878
3144.611,0.05539225
3150.319,0.05670523
3156.047,0.05776769
3161.796,0.05910575
3167.566,0.06012568
3173.356,0.06111805
3179.168,0.06319177
3185.001,0.06460068
3190.856,0.06525347
3196.731,0.06726618
3202.629,0.06814691
3208.548,0.06970644
3214.488,0.07336334
3220.451,0.07468011
3226.436,0.07524746
3232.443,0.07661089
3238.472,0.0784575
3244.523,0.08060538
3250.598,0.08301199
3256.694,0.08582425
3262.814,0.08613187
3268.956,0.08798494
3275.122,0.08968869
3281.31,0.09126394
3287.522,0.09351343
3293.757,0.09579589
3300.016,0.09766047
3306.299,0.09920553
3312.605,0.1003
3318.936,0.102069
3325.29,0.104346
3331.669,0.106216
3338.072,0.105224
3344.499,0.106467
3350.952,0.107847
3357.429,0.10792
3363.931,0.109318
3370.458,0.109109
3377.01,0.109212
3383.588,0.110906
3390.191,0.113384
3396.82,0.115429
3403.475,0.116819
3410.156,0.116811
3416.862,0.11693
3423.596,0.120222
3430.355,0.123558
3437.141,0.127653
3443.954,0.1319767
3450.794,0.132747
3457.661,0.135314
3464.556,0.137294
3471.477,0.138168
3478.426,0.139085
3485.403,0.140862
3492.408,0.143873
3499.441,0.144268
3506.502,0.146839
3513.592,0.151704
3520.71,0.1571371
3527.857,0.1617
3535.032,0.166978
3542.237,0.169975
3549.471,0.173013
3556.735,0.176429
3564.028,0.179691
3571.351,0.18294
3578.704,0.185788
3586.088,0.189172
3593.501,0.192054
3600.946,0.19465
3608.421,0.19695
3615.926,0.200524
3623.463,0.203031
3631.032,0.205579
3638.632,0.208349
3646.263,0.210904
3653.927,0.213853
3661.623,0.216274
3669.351,0.219315
3677.111,0.222317
3684.905,0.225981
3692.731,0.228547
3700.59,0.231601
3708.483,0.234586
3716.409,0.237635
3724.37,0.2408141
3732.364,0.243355
3740.392,0.246406
3748.455,0.249103
3756.553,0.251395
3764.685,0.253366
3772.853,0.255015
3781.056,0.256219
3789.294,0.257389
3797.568,0.257526
3805.879,0.258307
3814.225,0.258823
3822.609,0.259488
3831.029,0.260168
3839.486,0.260909
3847.98,0.2622576
3856.512,0.26367
3865.081,0.265458
3873.689,0.26652
3882.334,0.268016
3891.019,0.269264
3899.742,0.2702746
3908.504,0.27136
3917.305,0.272345
3926.146,0.272847
3935.027,0.273226
3943.948,0.273301
3952.909,0.272553
3961.911,0.271855
3970.954,0.27226
3980.038,0.272944
3989.163,0.274935
3998.33,0.278826
4007.54,0.284287
4016.791,0.290985
4026.086,0.298351
4035.423,0.306271
4044.804,0.315381
4054.228,0.32409
4063.695,0.332139
4073.207,0.339207
4082.764,0.346101
4092.365,0.352603
4102.012,0.358299
4111.703,0.363173
4121.441,0.368247
4131.224,0.372885
4141.054,0.377616
4150.931,0.381373
4160.854,0.385672
4170.826,0.390245
4180.844,0.394798
4190.911,0.400453
4201.026,0.41303
4211.19,0.437902
4221.404,0.467862
4231.666,0.491678
4241.979,0.499834
4252.341,0.479974
4262.754,0.47407
4273.219,0.496696
4283.734,0.499815
4294.301,0.503028
4304.92,0.501082
4315.592,0.495877
4326.317,0.491062
4337.095,0.486688
4347.926,0.485962
4358.811,0.4871229
4369.751,0.489537
4380.746,0.493836
4391.796,0.499552
4402.902,0.505371
4414.064,0.511146
4425.282,0.5166148
4436.558,0.520681
4447.891,0.524828
4459.281,0.530041
4470.73,0.534494
4482.238,0.537952
4493.805,0.541871
4505.431,0.544654
4517.118,0.548916
4528.865,0.552197
4540.674,0.556448
4552.543,0.560152
4564.475,0.565046
4576.47,0.568355
4588.527,0.571696
4600.648,0.5763061
4612.833,0.579314
4625.082,0.583801
4637.397,0.588368
4649.777,0.591915
4662.223,0.59706
4674.735,0.601861
4687.315,0.606855
4699.962,0.611605
4712.678,0.616591
4725.463,0.621109
4738.316,0.625486
4751.24,0.629657
4764.234,0.6347781
4777.299,0.639374
4790.436,0.643861
4803.645,0.646912
4816.927,0.650311
4830.283,0.654267
4843.712,0.659732
4857.216,0.662431
4870.795,0.666359
4884.451,0.670502
4898.182,0.67351
4911.991,0.676612
4925.878,0.67968
4939.844,0.682775
4953.888,0.686749
4968.013,0.689642
4982.218,0.692598
4996.504,0.696056
5010.872,0.699057
5025.323,0.703171
5039.857,0.705274
5054.475,0.708587
5069.179,0.712018
5083.967,0.716033
5098.842,0.718341
5113.804,0.721652
5128.854,0.7245746
5143.992,0.729535
5159.22,0.7316557
5174.538,0.734765
5189.947,0.7383057
5205.448,0.743665
5221.041,0.746138
5236.728,0.748526
5252.51,0.7512304
5268.386,0.754307
5284.358,0.758437
5300.428,0.7609937
5316.595,0.763315
5332.86,0.766114
5349.226,0.7734698
5365.692,0.772792
5382.259,0.775029
5398.928,0.777797
5415.701,0.785706
5432.579,0.786676
5449.561,0.790698
5466.65,0.797786
5483.846,0.802033
5501.15,0.805479
5518.564,0.816738
5536.087,0.837987
5553.723,0.889859
5571.47,0.862134
5589.332,0.68273
5607.307,0.707428
5625.399,0.729051
5643.607,0.752324
5661.934,0.761446
5680.379,0.768708
5698.945,0.777138
5717.633,0.787621
5736.443,0.7928061
5755.377,0.799658
5774.436,0.803748
5793.621,0.798845
5812.934,0.8123333
5832.376,0.813738
5851.948,0.812787
5871.652,0.823524
5891.488,0.827877
5911.459,0.821375
5931.565,0.833771
5951.809,0.830279
5972.19,0.836103
5992.711,0.837123
6013.374,0.838969
6034.179,0.845381
6055.129,0.853941
6076.224,0.851916
6097.466,0.852296
6118.857,0.857872
6140.398,0.8572
6162.091,0.861582
6183.938,0.868136
6205.94,0.8663831
6228.099,0.870842
6250.416,0.8743245
6272.893,0.876592
6295.533,0.879865
6318.336,0.883078
6341.304,0.890401
6364.44,0.891829
6387.745,0.892884
6411.221,0.906594
6434.869,0.899982
6458.693,0.901727
6482.693,0.912276
6506.872,0.908984
6531.231,0.909809
6555.774,0.915193
6580.501,0.918289
6605.415,0.918119
6630.518,0.925975
6655.812,0.921331
6681.3,0.924169
6706.983,0.927373
6732.864,0.926041
6758.945,0.9292
6785.229,0.934233
6811.718,0.932952
6838.413,0.935962
6865.319,0.939801
6892.437,0.937798
6919.769,0.938537
6947.319,0.942953
6975.089,0.942939
7003.081,0.944723
7031.298,0.9489879
7059.743,0.949357
7088.419,0.95003
7117.329,0.952068
7146.475,0.955164
7175.86,0.955905
7205.487,0.958023
7235.36,0.958936
7265.481,0.9612752
7295.854,0.962428
7326.481,0.964669
7357.366,0.965707
7388.512,0.967358
7419.922,0.968598
7451.601,0.970593
7483.55,0.971549
7515.774,0.972473
7548.277,0.973929
7581.061,0.975224
7614.131,0.9763287
7647.491,0.977296
7681.143,0.97847
7715.093,0.979442
7749.343,0.980621
7783.899,0.982146
7818.764,0.983371
7853.942,0.9847384
7889.437,0.986089
7925.254,0.987945
7961.398,0.989405
7997.872,0.990638
8034.682,0.992057
8071.832,0.993375
8109.326,0.9947401
8147.169,0.996044
8185.368,0.9972009
8223.925,0.998409
8262.847,0.999584
8302.139,0.0100086
8341.805,0.0100186
8381.852,0.0100298
8422.285,0.0100416
8463.109,0.0100526
8504.331,0.0100644
8545.955,0.0100753
8587.989,0.0100865
8630.437,0.0100939
8673.307,0.01011
8716.604,0.010117
8760.335,0.0101249
8804.507,0.010137
8849.125,0.0101507
8894.198,0.0101603
8939.732,0.0101681
8985.733,0.010178
9032.21,0.0101837
9079.17,0.0101857
9126.62,0.0101852
9174.568,0.0101838
9223.022,0.0101833
9271.99,0.0101853
9321.48,0.0101842
9371.5,0.0101859
9422.06,0.0101903
9473.167,0.0101951
9524.832,0.010194
9577.062,0.0101985
9629.868,0.0102005
9683.259,0.010204
9737.244,0.0102046
9791.834,0.01020638
9847.039,0.0102092
9902.869,0.0102137
9959.336,0.0102159
10016.449,0.01021952
10074.221,0.010224
10132.662,0.0102289
10191.784,0.0102351
10251.6,0.01023863
10312.121,0.01024232
10373.36,0.0102457
10435.331,0.0102477
10498.045,0.0102489
10561.517,0.0102464
10625.761,0.0102489
10690.79,0.0102496
10756.619,0.0102512
10823.264,0.0102519
10890.738,0.0102531
10959.058,0.0102564
11028.24,0.010255
11098.301,0.010257
11169.256,0.010258
11241.124,0.0102598
11313.921,0.0102549
11387.667,0.0102518
11462.38,0.0102427
11538.079,0.0102376
11614.783,0.010237
11692.513,0.0102349
11771.29,0.0102339
11851.134,0.010236
11932.068,0.0102352
12014.114,0.0102342
12097.296,0.0102339
12181.636,0.0102322
12267.16,0.0102278
12353.892,0.0102286
12441.859,0.0102282
12531.086,0.01022895
12621.601,0.0102292
12713.432,0.0102309
12806.608,0.0102342
12901.159,0.0102332
12997.116,0.0102365
13094.51,0.0102413
13193.373,0.0102479
13293.74,0.0102441
13395.644,0.0102502
13499.121,0.0102429
13604.208,0.0102341
13710.943,0.0102306
13819.365,0.0102281
13929.515,0.0102161
14041.433,0.0102123
14155.163,0.0102118
14270.749,0.0101966
14388.237,0.0101791
14507.674,0.0101734
14629.109,0.0101653
14752.594,0.0101405
14878.179,0.0101093
15005.92,0.0100592
15135.871,0.0100157
15268.092,0.992419
15402.642,0.976415
15539.583,0.955173
15678.979,0.916936
15820.897,0.859568
15965.407,0.781683