File: csv_library/FTIR_PYX_02.csv
Database of Origin,University of Winnipeg Spectrophotometer Facility
Sample Description,"HOSERLab master pyroxenes, FTIR data"
Date Added,2016-12-14 03:34:49.5455

Data ID,FTIR_PYX_02
Sample ID,PYX003
Mineral Name,Orthopyroxene
Grain Size,45-90 um
Viewing Geometry,"i=30, e=0"
Material Class,Inosilicate

Wavelength
2000.56,0.256769
2002.307,0.257803
2004.058,0.259135
2005.812,0.259659
2007.569,0.2601888
2009.329,0.261206
2011.092,0.262072
2012.858,0.26315
2014.627,0.264347
2016.399,0.265009
2018.174,0.265989
2019.952,0.267161
2021.733,0.2677334
2023.518,0.268687
2025.305,0.269544
2027.096,0.270676
2028.89,0.2718
2030.686,0.27257
2032.486,0.273381
2034.289,0.274259
2036.096,0.275376
2037.905,0.276375
2039.718,0.277766
2041.533,0.27857
2043.352,0.279859
2045.174,0.281013
2047.0,0.281645
2048.828,0.282899
2050.66,0.284034
2052.495,0.28522
2054.333,0.286448
2056.175,0.287551
2058.019,0.2890778
2059.867,0.290019
2061.718,0.291121
2063.573,0.292618
2065.431,0.294046
2067.292,0.295275
2069.156,0.296785
2071.024,0.298048
2072.895,0.299269
2074.769,0.300296
2076.647,0.301444
2078.528,0.302577
2080.412,0.304384
2082.3,0.305727
2084.191,0.306996
2086.085,0.30817
2087.983,0.309395
2089.885,0.311316
2091.789,0.31267
2093.697,0.313881
2095.609,0.315129
2097.524,0.316533
2099.443,0.317859
2101.364,0.3194426
2103.29,0.3207387
2105.219,0.322083
2107.151,0.323579
2109.087,0.324939
2111.026,0.326034
2112.969,0.327505
2114.915,0.328954
2116.865,0.330199
2118.819,0.331778
2120.776,0.333786
2122.736,0.335116
2124.7,0.336515
2126.668,0.33804
2128.64,0.339728
2130.614,0.341279
2132.593,0.343155
2134.575,0.344472
2136.561,0.3456298
2138.55,0.347077
2140.544,0.349144
2142.54,0.350865
2144.541,0.352522
2146.545,0.353692
2148.553,0.355128
2150.564,0.356722
2152.579,0.358312
2154.598,0.360063
2156.621,0.361506
2158.647,0.363152
2160.678,0.364722
2162.712,0.36685
2164.749,0.36803
2166.791,0.369996
2168.836,0.372128
2170.885,0.373942
2172.938,0.375569
2174.995,0.376799
2177.056,0.378701
2179.12,0.380871
2181.189,0.381635
2183.261,0.383426
2185.337,0.3856361
2187.417,0.386847
2189.501,0.3886343
2191.589,0.390094
2193.68,0.391538
2195.776,0.39341
2197.876,0.395379
2199.979,0.397271
2202.087,0.3986687
2204.199,0.400322
2206.314,0.402119
2208.434,0.404273
2210.557,0.405491
2212.685,0.407245
2214.817,0.409128
2216.952,0.410446
2219.092,0.412291
2221.236,0.413567
2223.384,0.414765
2225.536,0.416115
2227.692,0.417496
2229.853,0.418885
2232.017,0.419872
2234.186,0.420868
2236.359,0.422229
2238.536,0.423261
2240.717,0.424572
2242.902,0.425152
2245.092,0.426427
2247.285,0.428081
2249.483,0.429676
2251.686,0.431131
2253.892,0.432464
2256.103,0.434188
2258.318,0.436395
2260.537,0.438239
2262.761,0.43925
2264.989,0.440698
2267.221,0.44167
2269.458,0.442893
2271.699,0.443698
2273.944,0.445104
2276.194,0.44652
2278.448,0.447573
2280.707,0.4485204
2282.97,0.449563
2285.237,0.450591
2287.509,0.4515575
2289.786,0.45273
2292.067,0.453567
2294.352,0.45457
2296.642,0.455423
2298.936,0.456037
2301.235,0.457085
2303.539,0.4582488
2305.847,0.459261
2308.159,0.460414
2310.476,0.461018
2312.798,0.461757
2315.124,0.462675
2317.455,0.463666
2319.791,0.464762
2322.131,0.465713
2324.476,0.466467
2326.826,0.467846
2329.18,0.46894
2331.54,0.470184
2333.903,0.471824
2336.272,0.47332
2338.645,0.474144
2341.023,0.4756291
2343.406,0.476743
2345.794,0.478413
2348.186,0.479502
2350.583,0.481082
2352.986,0.482073
2355.393,0.483273
2357.804,0.483999
2360.221,0.484926
2362.643,0.4859316
2365.069,0.486685
2367.501,0.487502
2369.937,0.487928
2372.379,0.488179
2374.825,0.48886
2377.276,0.489433
2379.733,0.489985
2382.194,0.490223
2384.661,0.491608
2387.132,0.492321
2389.609,0.492911
2392.09,0.4935
2394.577,0.49427
2397.069,0.495015
2399.566,0.495476
2402.068,0.4968035
2404.575,0.4974202
2407.088,0.498118
2409.606,0.499563
2412.128,0.500252
2414.657,0.500918
2417.19,0.502
2419.729,0.502877
2422.272,0.502678
2424.822,0.503333
2427.376,0.503927
2429.936,0.504636
2432.501,0.504861
2435.072,0.505431
2437.648,0.505462
2440.229,0.5058515
2442.816,0.506451
2445.408,0.507237
2448.006,0.5077121
2450.609,0.508357
2453.217,0.507989
2455.831,0.508291
2458.451,0.508724
2461.076,0.508677
2463.707,0.509108
2466.343,0.509179
2468.985,0.509341
2471.632,0.510154
2474.285,0.510566
2476.944,0.510515
2479.608,0.510607
2482.278,0.51102
2484.954,0.511182
2487.636,0.511521
2490.323,0.512134
2493.016,0.51153
2495.715,0.511997
2498.419,0.51225
2501.129,0.512393
2503.845,0.512468
2506.567,0.512237
2509.295,0.512376
2512.029,0.512567
2514.769,0.512804
2517.514,0.513048
2520.266,0.5131485
2523.023,0.513356
2525.787,0.512755
2528.556,0.5129341
2531.331,0.513531
2534.113,0.513762
2536.9,0.5135387
2539.694,0.513475
2542.494,0.513942
2545.3,0.513971
2548.112,0.514004
2550.93,0.514677
2553.754,0.514181
2556.585,0.5128
2559.421,0.514179
2562.264,0.516531
2565.113,0.5141559
2567.969,0.514264
2570.831,0.514007
2573.699,0.514525
2576.573,0.514206
2579.454,0.513887
2582.342,0.5151052
2585.235,0.51478
2588.135,0.514656
2591.042,0.514356
2593.955,0.520682
2596.874,0.514643
2599.8,0.512493
2602.733,0.514694
2605.672,0.515741
2608.618,0.512973
2611.57,0.511879
2614.529,0.513364
2617.495,0.515028
2620.467,0.513187
2623.446,0.510517
2626.431,0.5123428
2629.424,0.514055
2632.423,0.512412
2635.429,0.509941
2638.442,0.509028
2641.461,0.509095
2644.488,0.509604
2647.521,0.508655
2650.561,0.509121
2653.609,0.509711
2656.663,0.508088
2659.724,0.508147
2662.792,0.508929
2665.867,0.512404
2668.949,0.51196
2672.038,0.507609
2675.135,0.5056717
2678.238,0.504196
2681.349,0.49455
2684.467,0.485605
2687.591,0.468357
2690.724,0.448149
2693.863,0.436858
2697.01,0.4250487
2700.164,0.419291
2703.325,0.412147
2706.494,0.403433
2709.67,0.399639
2712.853,0.379651
2716.044,0.359312
2719.242,0.355337
2722.448,0.353198
2725.661,0.345456
2728.882,0.331891
2732.111,0.324896
2735.347,0.323451
2738.59,0.323757
2741.841,0.321625
2745.1,0.315574
2748.367,0.3155421
2751.641,0.315685
2754.923,0.316956
2758.213,0.313952
2761.51,0.313228
2764.816,0.313374
2768.129,0.3137642
2771.45,0.3159801
2774.779,0.316693
2778.116,0.317737
2781.461,0.317385
2784.814,0.317813
2788.175,0.317391
2791.544,0.315613
2794.922,0.313734
2798.307,0.311992
2801.7,0.309387
2805.102,0.305254
2808.512,0.30287
2811.93,0.302997
2815.356,0.304481
2818.791,0.30658
2822.233,0.307238
2825.685,0.307631
2829.144,0.307179
2832.612,0.305517
2836.089,0.303218
2839.574,0.301494
2843.067,0.300726
2846.569,0.300501
2850.08,0.300781
2853.599,0.301833
2857.127,0.301236
2860.664,0.301676
2864.209,0.301684
2867.763,0.300878
2871.325,0.3002076
2874.897,0.299282
2878.477,0.298665
2882.066,0.298032
2885.664,0.297386
2889.271,0.297532
2892.887,0.296667
2896.512,0.295502
2900.146,0.2942999
2903.789,0.29359
2907.441,0.293316
2911.103,0.292484
2914.773,0.291766
2918.453,0.291744
2922.142,0.290645
2925.84,0.289728
2929.547,0.288516
2933.264,0.2886387
2936.99,0.2891949
2940.726,0.289244
2944.471,0.289881
2948.225,0.29142
2951.989,0.290941
2955.763,0.291872
2959.546,0.291581
2963.339,0.291835
2967.141,0.292585
2970.953,0.292628
2974.775,0.294325
2978.607,0.294504
2982.448,0.293806
2986.3,0.294151
2990.161,0.294863
2994.032,0.294939
2997.913,0.295014
3001.804,0.295986
3005.705,0.295708
3009.616,0.295376
3013.538,0.296322
3017.469,0.296216
3021.411,0.29606
3025.363,0.296659
3029.325,0.298225
3033.298,0.299726
3037.281,0.2984519
3041.274,0.298605
3045.278,0.299207
3049.292,0.298608
3053.317,0.298499
3057.352,0.298818
3061.398,0.29939
3065.455,0.300395
3069.522,0.29987
3073.6,0.2994952
3077.689,0.299983
3081.788,0.300162
3085.899,0.300435
3090.02,0.300685
3094.153,0.300252
3098.296,0.300349
3102.45,0.301095
3106.616,0.300584
3110.792,0.300906
3114.98,0.3015219
3119.179,0.301837
3123.389,0.30221
3127.611,0.302892
3131.844,0.303615
3136.088,0.303948
3140.344,0.304653
3144.611,0.3053433
3148.89,0.306236
3153.18,0.307354
3157.482,0.307992
3161.796,0.308802
3166.121,0.309471
3170.458,0.310258
3174.807,0.310883
3179.168,0.312702
3183.541,0.313118
3187.926,0.312519
3192.323,0.313925
3196.731,0.314632
3201.152,0.3142015
3205.585,0.314742
3210.031,0.3155002
3214.488,0.3178966
3218.958,0.318086
3223.441,0.316574
3227.936,0.3166818
3232.443,0.31614
3236.963,0.316851
3241.495,0.317189
3246.04,0.318189
3250.598,0.318928
3255.168,0.320482
3259.751,0.320493
3264.347,0.318806
3268.956,0.31941
3273.578,0.319278
3278.213,0.31894
3282.861,0.319711
3287.522,0.320299
3292.196,0.320653
3296.884,0.321739
3301.585,0.320853
3306.299,0.3209324
3311.026,0.320651
3315.767,0.321084
3320.522,0.321304
3325.29,0.322588
3330.072,0.323805
3334.867,0.3219056
3339.676,0.321098
3344.499,0.321358
3349.336,0.321871
3354.187,0.3215239
3359.052,0.320198
3363.931,0.320822
3368.824,0.320619
3373.731,0.319569
3378.652,0.31848
3383.588,0.31853
3388.538,0.318658
3393.502,0.318699
3398.481,0.319287
3403.475,0.320013
3408.483,0.3198956
3413.506,0.31806
3418.543,0.3182372
3423.596,0.319248
3428.663,0.319329
3433.745,0.319935
3438.842,0.321961
3443.954,0.323329
3449.082,0.321523
3454.224,0.321044
3459.382,0.321078
3464.556,0.321488
3469.744,0.320759
3474.948,0.32017
3480.168,0.3201
3485.403,0.320465
3490.654,0.322321
3495.921,0.321696
3501.204,0.32083
3506.502,0.321127
3511.817,0.321531
3517.147,0.322147
3522.494,0.3230571
3527.857,0.32329
3533.236,0.324748
3538.631,0.324337
3544.043,0.3230551
3549.471,0.3228689
3554.916,0.323093
3560.378,0.322905
3565.856,0.323087
3571.351,0.323639
3576.863,0.323274
3582.392,0.323557
3587.938,0.323909
3593.501,0.323983
3599.082,0.324096
3604.679,0.322907
3610.294,0.322898
3615.926,0.32373
3621.576,0.323487
3627.244,0.323325
3632.929,0.32321
3638.632,0.323356
3644.353,0.323677
3650.091,0.324426
3655.848,0.324357
3661.623,0.323782
3667.416,0.323992
3673.227,0.323886
3679.057,0.324628
3684.905,0.32468
3690.771,0.324057
3696.656,0.324054
3702.56,0.324299
3708.483,0.324555
3714.425,0.324723
3720.385,0.325094
3726.365,0.325611
3732.364,0.325999
3738.382,0.326248
3744.419,0.327248
3750.476,0.327558
3756.553,0.327642
3762.649,0.327716
3768.764,0.327867
3774.9,0.328067
3781.056,0.328303
3787.231,0.328497
3793.427,0.328699
3799.643,0.329224
3805.879,0.329573
3812.135,0.329828
3818.412,0.330415
3824.71,0.330746
3831.029,0.330988
3837.368,0.3316824
3843.728,0.332588
3850.109,0.33358
3856.512,0.334308
3862.935,0.335123
3869.38,0.335706
3875.846,0.3362614
3882.334,0.3368475
3888.844,0.337461
3895.375,0.338324
3901.929,0.339118
3908.504,0.33954
3915.101,0.339896
3921.721,0.340424
3928.363,0.341017
3935.027,0.3417014
3941.714,0.342797
3948.423,0.343854
3955.156,0.34471
3961.911,0.3462764
3968.689,0.347971
3975.491,0.349446
3982.315,0.350598
3989.163,0.3515119
3996.035,0.352626
4002.93,0.353743
4009.849,0.354853
4016.791,0.355842
4023.758,0.357188
4030.749,0.358428
4037.764,0.359685
4044.804,0.360924
4051.867,0.362583
4058.956,0.36422
4066.069,0.3658236
4073.207,0.367648
4080.371,0.369357
4087.559,0.371463
4094.773,0.373573
4102.012,0.375447
4109.276,0.37743
4116.566,0.37936
4123.882,0.3818751
4131.224,0.384171
4138.592,0.3864017
4145.987,0.389019
4153.407,0.391709
4160.854,0.394438
4168.328,0.397066
4175.829,0.399342
4183.356,0.402215
4190.911,0.4056671
4198.493,0.412248
4206.102,0.4259155
4213.739,0.444847
4221.404,0.46382
4229.096,0.478385
4236.816,0.4879993
4244.565,0.4882471
4252.341,0.472113
4260.146,0.465203
4267.98,0.484601
4275.843,0.491366
4283.734,0.492783
4291.655,0.495655
4299.604,0.495297
4307.583,0.49548
4315.592,0.491998
4323.631,0.489398
4331.699,0.487518
4339.797,0.485511
4347.926,0.486351
4356.085,0.488632
4364.275,0.490781
4372.495,0.494231
4380.746,0.497879
4389.029,0.503061
4397.342,0.507655
4405.687,0.512357
4414.064,0.517319
4422.472,0.521858
4430.913,0.5261272
4439.386,0.530203
4447.891,0.533689
4456.428,0.537237
4464.998,0.540798
4473.602,0.544147
4482.238,0.547206
4490.908,0.549679
4499.611,0.552484
4508.347,0.555769
4517.118,0.558131
4525.923,0.560815
4534.762,0.563715
4543.635,0.56609
4552.543,0.568976
4561.487,0.572568
4570.465,0.575017
4579.478,0.577811
4588.527,0.580933
4597.612,0.583633
4606.732,0.587494
4615.889,0.5896125
4625.082,0.5919294
4634.312,0.593737
4643.578,0.596711
4652.882,0.599306
4662.223,0.601813
4671.601,0.605317
4681.017,0.609163
4690.471,0.610035
4699.962,0.613442
4709.493,0.617625
4719.062,0.620325
4728.669,0.623761
4738.316,0.627431
4748.002,0.630413
4757.728,0.634448
4767.494,0.637958
4777.299,0.64153
4787.145,0.645067
4797.032,0.647765
4806.959,0.650443
4816.927,0.654417
4826.937,0.656407
4836.988,0.657874
4847.081,0.661277
4857.216,0.6645737
4867.393,0.6670608
4877.613,0.668714
4887.876,0.671501
4898.182,0.675847
4908.532,0.678507
4918.925,0.679984
4929.362,0.683458
4939.844,0.686676
4950.37,0.690049
4960.941,0.692877
4971.556,0.694386
4982.218,0.697033
4992.925,0.698892
5003.678,0.701886
5014.477,0.706327
5025.323,0.709374
5036.216,0.709691
5047.156,0.7119535
5058.143,0.713885
5069.179,0.716058
5080.262,0.7207505
5091.394,0.722567
5102.574,0.724211
5113.804,0.726984
5125.083,0.729113
5136.412,0.733736
5147.791,0.740293
5159.22,0.738903
5170.7,0.741146
5182.231,0.744382
5193.814,0.750198
5205.448,0.757168
5217.134,0.7595061
5228.873,0.7590691
5240.665,0.763727
5252.51,0.765342
5264.408,0.768915
5276.36,0.774029
5288.367,0.779555
5300.428,0.780343
5312.544,0.781201
5324.715,0.784269
5336.942,0.78904
5349.226,0.8009
5361.566,0.796302
5373.962,0.79573
5386.417,0.797653
5398.928,0.800271
5411.498,0.809464
5424.127,0.8181424
5436.814,0.811655
5449.561,0.816603
5462.368,0.8317023
5475.234,0.839708
5488.162,0.841829
5501.15,0.847266
5514.2,0.87472
5527.312,0.9081874
5540.486,0.944242
5553.723,0.874229
5567.023,0.665808
5580.387,0.629252
5593.815,0.692662
5607.307,0.719536
5620.865,0.742248
5634.489,0.756482
5648.178,0.764687
5661.934,0.7691863
5675.757,0.779473
5689.647,0.784257
5703.606,0.790366
5717.633,0.800036
5731.729,0.802961
5745.894,0.809603
5760.13,0.820424
5774.436,0.823874
5788.813,0.81844
5803.262,0.824419
5817.782,0.841873
5832.376,0.841968
5847.043,0.840058
5861.783,0.851457
5876.598,0.863228
5891.488,0.865256
5906.454,0.855126
5921.495,0.860428
5936.613,0.87328
5951.809,0.865394
5967.082,0.869107
5982.433,0.871378
5997.864,0.868847
6013.374,0.869605
6028.964,0.871068
6044.636,0.886952
6060.389,0.883837
6076.224,0.88192
6092.141,0.8783811
6108.143,0.889253
6124.228,0.883451
6140.398,0.886127
6156.654,0.890226
6172.996,0.891762
6189.424,0.893323
6205.94,0.892819
6222.544,0.894643
6239.237,0.8963505
6256.02,0.897922
6272.893,0.901525
6289.858,0.901622
6306.914,0.90334
6324.062,0.907907
6341.304,0.913063
6358.64,0.914935
6376.071,0.916002
6393.598,0.917207
6411.221,0.929759
6428.941,0.92228
6446.759,0.920442
6464.676,0.924676
6482.693,0.933815
6500.81,0.9296428
6519.029,0.929725
6537.35,0.930019
6555.774,0.934594
6574.302,0.937825
6592.934,0.9371897
6611.673,0.939815
6630.518,0.946774
6649.47,0.938582
6668.532,0.941485
6687.702,0.94148
6706.983,0.945693
6726.375,0.943245
6745.879,0.943371
6765.497,0.94804
6785.229,0.950476
6805.076,0.947495
6825.039,0.949752
6845.12,0.953403
6865.319,0.9547301
6885.637,0.951644
6906.076,0.952964
6926.636,0.952465
6947.319,0.955805
6968.125,0.956612
6989.057,0.957746
7010.114,0.958694
7031.298,0.962228
7052.611,0.962972
7074.052,0.9620302
7095.625,0.963581
7117.329,0.965648
7139.166,0.967763
7161.137,0.968781
7183.244,0.968832
7205.487,0.970583
7227.869,0.970601
7250.39,0.97261
7273.051,0.974124
7295.854,0.97472
7318.8,0.976418
7341.891,0.97725
7365.128,0.977383
7388.512,0.979243
7412.045,0.980772
7435.728,0.9819093
7459.562,0.983709
7483.55,0.984068
7507.692,0.984603
7531.99,0.985514
7556.446,0.986571
7581.061,0.987433
7605.837,0.987577
7630.774,0.987794
7655.876,0.988448
7681.143,0.989621
7706.577,0.9902882
7732.18,0.990827
7757.953,0.99183
7783.899,0.992841
7810.018,0.993873
7836.313,0.995053
7862.786,0.996447
7889.437,0.997939
7916.27,0.99897
7943.285,0.0100004
7970.485,0.0100145
7997.872,0.0100276
8025.448,0.0100376
8053.214,0.0100508
8081.173,0.0100601
8109.326,0.0100662
8137.676,0.010077
8166.224,0.0100858
8194.973,0.0100972
8223.925,0.0101075
8253.082,0.0101136
8282.446,0.010124
8312.02,0.0101336
8341.805,0.0101454
8371.804,0.0101534
8402.02,0.0101625
8432.454,0.0101704
8463.109,0.0101783
8493.988,0.010187
8525.092,0.0101927
8556.425,0.0101998
8587.989,0.0102065
8619.786,0.0102126
8651.819,0.0102172
8684.091,0.0102256
8716.604,0.0102333
8749.361,0.0102406
8782.365,0.0102481
8815.619,0.0102585
8849.125,0.0102658
8882.887,0.010271
8916.907,0.0102794
8951.188,0.0102871
8985.733,0.0102907
9020.546,0.0102891
9055.629,0.0102851
9090.986,0.0102814
9126.62,0.0102793
9162.534,0.0102683
9198.731,0.0102578
9235.215,0.0102511
9271.99,0.010248
9309.058,0.0102465
9346.423,0.0102448
9384.089,0.0102442
9422.06,0.0102453
9460.339,0.010247
9498.929,0.0102522
9537.836,0.0102552
9577.062,0.01026
9616.612,0.0102628
9656.49,0.0102679
9696.699,0.0102754
9737.244,0.0102781
9778.129,0.0102802
9819.359,0.0102819
9860.938,0.0102866
9902.869,0.0102883
9945.159,0.0102865
9987.811,0.0102828
10030.83,0.0102852
10074.221,0.0102862
10117.988,0.0102901
10162.137,0.0102947
10206.672,0.0103003
10251.6,0.0103059
10296.924,0.0103102
10342.65,0.0103166
10388.784,0.0103218
10435.331,0.0103256
10482.296,0.0103238
10529.686,0.0103249
10577.505,0.010331
10625.761,0.0103353
10674.458,0.0103353
10723.604,0.0103343
10773.203,0.0103381
10823.264,0.0103373
10873.791,0.0103359
10924.791,0.0103392
10976.272,0.0103436
11028.24,0.010348
11080.702,0.0103491
11133.665,0.0103454
11187.137,0.0103411
11241.124,0.0103377
11295.634,0.0103346
11350.675,0.0103323
11406.254,0.0103249
11462.38,0.0103176
11519.06,0.010311
11576.304,0.0103077
11634.118,0.0103043
11692.513,0.0103006
11751.496,0.0102987
11811.077,0.0102992
11871.265,0.0103002
11932.068,0.0103034
11993.497,0.0103031
12055.562,0.01030706
12118.271,0.0103093
12181.636,0.0103054
12245.667,0.0103041
12310.373,0.0103027
12375.767,0.0103002
12441.859,0.010292
12508.659,0.0102952
12576.18,0.0102935
12644.434,0.0102893
12713.432,0.0102899
12783.187,0.0102912
12853.71,0.0102944
12925.016,0.0102956
12997.116,0.0103007
13070.025,0.0103087
13143.756,0.0103092
13218.322,0.0103132
13293.74,0.0103132
13370.021,0.0103126
13447.183,0.0103161
13525.24,0.0103132
13604.208,0.0103063
13684.103,0.0102999
13764.941,0.0102893
13846.739,0.0102801
13929.515,0.0102809
14013.285,0.0102794
14098.068,0.0102708
14183.883,0.0102632
14270.749,0.0102484
14358.684,0.0102517
14447.709,0.0102478
14537.844,0.0102287
14629.109,0.0102222
14721.528,0.0102146
14815.121,0.0102034
14909.91,0.0101673
15005.92,0.0101512
15103.173,0.0101347
15201.695,0.0100848
15301.509,0.0100141
15402.642,0.988807
15505.12,0.969922
15608.97,0.948906
15714.22,0.912118
15820.897,0.864396
15929.033,0.819395
15965.407,0.791593