File: csv_library/FTIR_LNR_3_5.csv
Database of Origin,University of Winnipeg Spectrophotometer Facility
Sample Description,Lunar samples/ analogues and glasses - D and P 102F FTIR spectra (from PSF) NASA Apollo lunar samples
Other Information,diffuse gold puck 100 spectra averaged
Date Added,2018-07-23 21:03:11.4478

Data ID,FTIR_LNR_3_5
Sample ID,apollo 17 ID# 71061 13 5
Grain Size,<1mm?
Viewing Geometry,i=30/ e=0
Resolution,3 cm-1
Composition,regolith sample

Wavelength
2.001142,0.443193
2.003474,0.442842
2.005812,0.442595
2.008155,0.442624
2.010504,0.442628
2.012858,0.441856
2.015217,0.442694
2.017582,0.442255
2.019952,0.442922
2.022328,0.442584
2.024709,0.443071
2.027096,0.443407
2.029488,0.442515
2.031886,0.443086
2.034289,0.443279
2.036698,0.443697
2.039113,0.443257
2.041533,0.444121
2.043959,0.444318
2.046391,0.44477
2.048828,0.444029
2.051271,0.443937
2.05372,0.444776
2.056175,0.444262
2.058635,0.444634
2.061101,0.445312
2.063573,0.445558
2.066051,0.445601
2.068534,0.446126
2.071024,0.44695
2.073519,0.446392
2.07602,0.446671
2.078528,0.445882
2.081041,0.447101
2.08356,0.446815
2.086085,0.446748
2.088617,0.447791
2.091154,0.447505
2.093697,0.447306
2.096247,0.448404
2.098803,0.448588
2.101364,0.448474
2.103932,0.448692
2.106506,0.448959
2.109087,0.448845
2.111673,0.448819
2.114266,0.448773
2.116865,0.447882
2.119471,0.449564
2.122082,0.44931
2.1247,0.450454
2.127325,0.451479
2.129956,0.450904
2.132593,0.45165
2.135237,0.451261
2.137887,0.451206
2.140544,0.451652
2.143207,0.450941
2.145876,0.451596
2.148553,0.452596
2.151235,0.452982
2.153925,0.45333
2.156621,0.45377
2.159324,0.45432
2.162033,0.453659
2.164749,0.454862
2.167472,0.455009
2.170202,0.456202
2.172938,0.455737
2.175682,0.455808
2.178432,0.456647
2.181189,0.456507
2.183952,0.456535
2.186723,0.457814
2.189501,0.457998
2.192285,0.456938
2.195077,0.45696
2.197876,0.458474
2.200682,0.458501
2.203494,0.459749
2.206314,0.460267
2.209141,0.459791
2.211975,0.459761
2.214817,0.460208
2.217665,0.460291
2.220521,0.461024
2.223384,0.461526
2.226254,0.460507
2.229132,0.460832
2.232017,0.461921
2.23491,0.461255
2.237809,0.461348
2.240717,0.463131
2.243631,0.463446
2.246554,0.462621
2.249483,0.463067
2.252421,0.463645
2.255365,0.463246
2.258318,0.463476
2.261278,0.463125
2.264246,0.463087
2.267221,0.46365
2.270204,0.464271
2.273195,0.464944
2.276194,0.465061
2.279201,0.464708
2.282215,0.465442
2.285237,0.466329
2.288268,0.465586
2.291306,0.465923
2.294352,0.465773
2.297406,0.46576
2.300468,0.465009
2.303539,0.467855
2.306617,0.468084
2.309703,0.467523
2.312798,0.468113
2.315901,0.468024
2.319012,0.468165
2.322131,0.467395
2.325259,0.467287
2.328395,0.468449
2.33154,0.468577
2.334692,0.469356
2.337854,0.468285
2.341023,0.468808
2.344201,0.46922
2.347388,0.469107
2.350583,0.470143
2.353787,0.47008
2.357,0.470246
2.360221,0.469668
2.363451,0.470448
2.36669,0.471489
2.369937,0.471339
2.373194,0.470785
2.376459,0.471735
2.379733,0.472072
2.383016,0.471448
2.386308,0.47318
2.389609,0.472864
2.392919,0.472602
2.396238,0.473211
2.399566,0.47283
2.402903,0.472863
2.40625,0.473169
2.409606,0.473725
2.412971,0.474077
2.416345,0.474364
2.419729,0.474676
2.423122,0.474457
2.426524,0.475165
2.429936,0.474783
2.433358,0.476073
2.436789,0.475937
2.440229,0.47513
2.443679,0.477375
2.447139,0.476461
2.450609,0.476866
2.454088,0.477548
2.457577,0.477908
2.461076,0.477814
2.464585,0.47792
2.468104,0.477955
2.471632,0.478295
2.475171,0.478921
2.47872,0.478974
2.482278,0.479471
2.485847,0.479573
2.489427,0.480291
2.493016,0.480626
2.496615,0.48136
2.500225,0.482044
2.503845,0.481511
2.507476,0.481495
2.511117,0.481981
2.514769,0.48333
2.518431,0.483451
2.522103,0.483994
2.525787,0.48417
2.52948,0.484782
2.533185,0.485071
2.5369,0.486277
2.540627,0.48534
2.544364,0.48684
2.548112,0.487037
2.55187,0.490363
2.55564,0.486692
2.559421,0.489668
2.563213,0.493899
2.567016,0.487608
2.570831,0.488731
2.574656,0.492218
2.578493,0.489703
2.582342,0.494292
2.586201,0.492576
2.590072,0.490896
2.593955,0.507081
2.597849,0.490184
2.601755,0.492263
2.605672,0.499088
2.609601,0.493115
2.613542,0.491018
2.617495,0.498179
2.621459,0.49794
2.625435,0.496646
2.629424,0.498145
2.633424,0.4946
2.637437,0.491192
2.641461,0.493644
2.645498,0.494675
2.649547,0.49145
2.653609,0.495648
2.657682,0.493265
2.661768,0.495571
2.665867,0.5084
2.669978,0.506619
2.674102,0.49098
2.678238,0.499122
2.682387,0.4919191
2.686549,0.492283
2.690724,0.48917
2.694911,0.496758
2.699112,0.488732
2.703325,0.489354
2.707552,0.487959
2.711791,0.495048
2.716044,0.485984
2.72031,0.495886
2.724589,0.48917
2.728882,0.4777
2.733188,0.475782
2.737508,0.473849
2.741841,0.479141
2.746188,0.468986
2.750549,0.467024
2.754923,0.471263
2.759311,0.461341
2.763713,0.464986
2.768129,0.462102
2.772559,0.461498
2.777003,0.459221
2.781461,0.457867
2.785934,0.456341
2.79042,0.455113
2.794922,0.453382
2.799437,0.452487
2.803967,0.460236
2.808512,0.452753
2.813071,0.451889
2.817645,0.450498
2.822233,0.452807
2.826837,0.451341
2.831455,0.450556
2.836089,0.451649
2.840737,0.449387
2.845401,0.449657
2.85008,0.44972
2.854774,0.450159
2.859484,0.448364
2.864209,0.448453
2.868949,0.447677
2.873705,0.447965
2.878477,0.446738
2.883265,0.44659
2.888068,0.446103
2.892887,0.445535
2.897723,0.44404
2.902574,0.443641
2.907441,0.444067
2.912325,0.443481
2.917225,0.443716
2.922142,0.442368
2.927075,0.442213
2.932024,0.441351
2.93699,0.442392
2.941973,0.44196
2.946973,0.443621
2.951989,0.441451
2.957023,0.442029
2.962073,0.441132
2.967141,0.441568
2.972226,0.442483
2.977328,0.4432
2.982448,0.441474
2.987586,0.442099
2.99274,0.443689
2.997913,0.442549
3.003103,0.444244
3.008312,0.443717
3.013538,0.44426
3.018782,0.445065
3.024044,0.445559
3.029325,0.446284
3.034624,0.448272
3.039942,0.447487
3.045278,0.449058
3.050632,0.448566
3.056006,0.448024
3.061398,0.449107
3.066809,0.450031
3.072239,0.449473
3.077689,0.449502
3.083157,0.45066
3.088645,0.451073
3.094153,0.450944
3.099679,0.451887
3.105226,0.451504
3.110792,0.451348
3.116378,0.451933
3.121985,0.452016
3.127611,0.452462
3.133257,0.452637
3.138924,0.453728
3.144611,0.453855
3.150319,0.454676
3.156047,0.454684
3.161796,0.455505
3.167566,0.45598
3.173356,0.456969
3.179168,0.457661
3.185001,0.457823
3.190856,0.458271
3.196731,0.46031
3.202629,0.459746
3.208548,0.459711
3.214488,0.462805
3.220451,0.462754
3.226436,0.462975
3.232443,0.463251
3.238472,0.463652
3.244523,0.464411
3.250598,0.465536
3.256694,0.466778
3.262814,0.465119
3.268956,0.466336
3.275122,0.466144
3.28131,0.46691
3.287522,0.46831
3.293757,0.468569
3.300016,0.469679
3.306299,0.470464
3.312605,0.470136
3.318936,0.471088
3.32529,0.47186
3.331669,0.473884
3.338072,0.472412
3.344499,0.473017
3.350952,0.474112
3.357429,0.473014
3.363931,0.474713
3.370458,0.475717
3.37701,0.476362
3.383588,0.477945
3.390191,0.478401
3.39682,0.480031
3.403475,0.480941
3.410156,0.482587
3.416862,0.484374
3.423596,0.487039
3.430355,0.486286
3.437141,0.486399
3.443954,0.488691
3.450794,0.485725
3.457661,0.486323
3.464556,0.487477
3.471477,0.48715
3.478426,0.488388
3.485403,0.488976
3.492408,0.492325
3.499441,0.492218
3.506502,0.494741
3.513592,0.494683
3.52071,0.494214
3.527857,0.494255
3.535032,0.497029
3.542237,0.496363
3.549471,0.496593
3.556735,0.497647
3.564028,0.498568
3.571351,0.500715
3.578704,0.500637
3.586088,0.502681
3.593501,0.502796
3.600946,0.50362
3.608421,0.504225
3.615926,0.506004
3.623463,0.506532
3.631032,0.507278
3.638632,0.508039
3.646263,0.509154
3.653927,0.510687
3.661623,0.511343
3.669351,0.512843
3.677111,0.513688
3.684905,0.515527
3.692731,0.516023
3.70059,0.517077
3.708483,0.518552
3.716409,0.519817
3.72437,0.520822
3.732364,0.521746
3.740392,0.524129
3.748455,0.524972
3.756553,0.526073
3.764685,0.527144
3.772853,0.528753
3.781056,0.530475
3.789294,0.531485
3.797568,0.532963
3.805879,0.534589
3.814225,0.536028
3.822609,0.536704
3.831029,0.538633
3.839486,0.540266
3.84798,0.541015
3.856512,0.542545
3.865081,0.543626
3.873689,0.544887
3.882334,0.545935
3.891019,0.547057
3.899742,0.548927
3.908504,0.550169
3.917305,0.551448
3.926146,0.553105
3.935027,0.554929
3.943948,0.556737
3.952909,0.559128
3.961911,0.56053
3.970954,0.562959
3.980038,0.564386
3.989163,0.566443
3.99833,0.567594
4.00754,0.569347
4.016791,0.570907
4.026086,0.572721
4.035423,0.574843
4.044804,0.576892
4.054228,0.578981
4.063695,0.581899
4.073207,0.58419
4.082764,0.586359
4.092365,0.588747
4.102012,0.591144
4.111703,0.594527
4.121441,0.5973401
4.131224,0.599124
4.141054,0.602629
4.150931,0.60608
4.160854,0.608186
4.170826,0.611259
4.180844,0.614252
4.190911,0.618044
4.201026,0.62157
4.21119,0.626154
4.221404,0.632274
4.231666,0.637233
4.241979,0.640969
4.252341,0.640689
4.262754,0.642123
4.273219,0.647487
4.283734,0.651935
4.294301,0.653186
4.30492,0.656421
4.315592,0.65815
4.326317,0.660779
4.337095,0.662117
4.347926,0.666115
4.358811,0.672106
4.369751,0.674601
4.380746,0.678862
4.391796,0.682544
4.402902,0.688171
4.414064,0.693285
4.425282,0.698203
4.436558,0.702265
4.447891,0.706914
4.459281,0.710403
4.47073,0.714796
4.482238,0.717266
4.493805,0.720645
4.505431,0.725438
4.517118,0.727511
4.528865,0.729176
4.540674,0.731128
4.552543,0.736215
4.564475,0.737603
4.57647,0.74202
4.588527,0.746976
4.600648,0.746882
4.612833,0.751632
4.625082,0.752963
4.637397,0.756385
4.649777,0.758905
4.662223,0.763486
4.674735,0.767497
4.687315,0.772663
4.699962,0.776842
4.712678,0.782268
4.725463,0.7874
4.738316,0.792187
4.75124,0.797735
4.764234,0.802443
4.777299,0.807891
4.790436,0.812547
4.803645,0.81661
4.816927,0.821081
4.830283,0.824486
4.843712,0.827166
4.857216,0.832096
4.870795,0.834254
4.884451,0.834757
4.898182,0.839132
4.911991,0.841039
4.925878,0.843703
4.939844,0.845561
4.953888,0.84855
4.968013,0.850413
4.982218,0.852301
4.996504,0.854867
5.010872,0.857029
5.025323,0.860263
5.039857,0.862207
5.054475,0.864158
5.069179,0.866399
5.083967,0.870221
5.098842,0.871614
5.113804,0.874721
5.128854,0.877533
5.143992,0.880572
5.15922,0.882128
5.174538,0.884291
5.189947,0.887451
5.205448,0.891029
5.221041,0.893645
5.236728,0.897157
5.25251,0.899261
5.268386,0.902027
5.284358,0.905109
5.300428,0.908067
5.316595,0.911036
5.33286,0.913619
5.349226,0.91959
5.365692,0.919994
5.382259,0.923945
5.398928,0.930511
5.415701,0.942475
5.432579,0.956535
5.449561,0.988
5.46665,0.0106571
5.483846,0.0124029
5.50115,0.0179087
5.518564,0.736173
5.536087,0.450158
5.553723,0.549255
5.57147,0.618271
5.589332,0.664665
5.607307,0.6917409
5.625399,0.714731
5.643607,0.725286
5.661934,0.744665
5.680379,0.75506
5.698945,0.765461
5.717633,0.772045
5.736443,0.782612
5.755377,0.789606
5.774436,0.796047
5.793621,0.803541
5.812934,0.809116
5.832376,0.815928
5.851948,0.820815
5.871652,0.825467
5.891488,0.829221
5.911459,0.8408128
5.931565,0.836528
5.951809,0.854152
5.97219,0.852541
5.992711,0.855807
6.013374,0.857149
6.034179,0.862963
6.055129,0.859601
6.076224,0.861642
6.097466,0.867245
6.118857,0.866325
6.140398,0.869961
6.162091,0.873629
6.183938,0.871955
6.20594,0.884544
6.228099,0.890563
6.250416,0.895015
6.272893,0.899399
6.295533,0.904075
6.318336,0.906842
6.341304,0.900095
6.36444,0.909669
6.387745,0.91654
6.411221,0.900371
6.434869,0.918741
6.458693,0.922919
6.482693,0.915349
6.506872,0.931924
6.531231,0.937777
6.555774,0.936752
6.580501,0.940974
6.605415,0.946044
6.630518,0.937377
6.655812,0.95403
6.6813,0.953818
6.706983,0.95524
6.732864,0.961279
6.758945,0.96379
6.785229,0.959064
6.811718,0.967011
6.838413,0.970734
6.865319,0.967752
6.892437,0.973847
6.919769,0.976368
6.947319,0.975222
6.975089,0.983074
7.003081,0.985341
7.031298,0.985025
7.059743,0.991758
7.088419,0.993292
7.117329,0.994371
7.146475,0.995739
7.17586,0.0100034
7.205487,0.0100103
7.23536,0.0100448
7.265481,0.0100626
7.295854,0.0100961
7.326481,0.0101121
7.357366,0.0101512
7.388512,0.0101676
7.419922,0.010196
7.451601,0.0102133
7.48355,0.0102477
7.515774,0.0102664
7.548277,0.0102849
7.581061,0.0103099
7.614131,0.0103367
7.647491,0.0103583
7.681143,0.0103814
7.715093,0.0103975
7.749343,0.0104261
7.783899,0.010448
7.818764,0.010467
7.853942,0.0104839
7.889437,0.010503
7.925254,0.0105193
7.961398,0.0105649
7.997872,0.0105958
8.034682,0.0106294
8.071832,0.010656
8.109326,0.0106824
8.147169,0.0107119
8.185368,0.0107382
8.223925,0.0107683
8.262847,0.010797
8.302139,0.0108218
8.341805,0.0108411
8.381852,0.0108548
8.422285,0.0108831
8.463109,0.010902
8.504331,0.0109298
8.545955,0.0109494
8.587989,0.0109685
8.630437,0.010984
8.673307,0.0109998
8.716604,0.0110104
8.760335,0.0110273
8.804507,0.0110398
8.849125,0.0110425
8.894198,0.0110476
8.939732,0.0110528
8.985733,0.0110681
9.03221,0.0110762
9.07917,0.01108
9.12662,0.0110897
9.174568,0.0110808
9.223022,0.0110892
9.27199,0.0110989
9.32148,0.0111022
9.3715,0.0111106
9.42206,0.0111267
9.473167,0.011115
9.524832,0.0111137
9.577062,0.0111174
9.629868,0.0111164
9.683259,0.0111195
9.737244,0.011126
9.791834,0.0111283
9.847039,0.0111342
9.902869,0.0111508
9.959336,0.0111561
10.0164,0.0111599
10.0742,0.0111639
10.1327,0.0111603
10.1918,0.011161
10.2516,0.0111551
10.3121,0.011151
10.37336,0.0111451
10.4353,0.0111417
10.498,0.011135
10.5615,0.01113
10.6258,0.011127
10.69079,0.011118
10.7566,0.0111138
10.8233,0.0111138
10.8907,0.0111009
10.9591,0.0110879
11.02824,0.0110829
11.0983,0.0110642
11.1693,0.0110509
11.2411,0.011032
11.3139,0.0110165
11.3877,0.011004
11.46238,0.0109719
11.5381,0.0109806
11.6148,0.0109573
11.6925,0.0109347
11.77129,0.0109178
11.8511,0.0109006
11.9321,0.0108779
12.0141,0.0108688
12.0973,0.0108386
12.1816,0.0108236
12.26716,0.0108062
12.3539,0.0107911
12.4419,0.0107815
12.5311,0.0107931
12.6216,0.0107868
12.7134,0.0108018
12.8066,0.0108135
12.9012,0.0108073
12.9971,0.0107937
13.09451,0.0107748
13.1934,0.0107484
13.29374,0.0107293
13.3956,0.0107132
13.4991,0.0106858
13.6042,0.0106249
13.7109,0.0106264
13.8194,0.0105963
13.9295,0.0105663
14.0414,0.0105274
14.1552,0.0105005
14.2707,0.0104324
14.3882,0.0103853
14.5077,0.0102866
14.6291,0.0102
14.7526,0.0100691
14.8782,0.992154
15.00592,0.964489
15.1359,0.92315
15.2681,0.862956
15.4026,0.792608
15.5396,0.70651
15.679,0.575601
15.8209,0.4736
15.9654,0.4100135