File: csv_library/FTIR_CARB_39_3.csv
Database of Origin,University of Winnipeg Spectrophotometer Facility
Sample Description,Carbonates and Oxolates -  D&P Spectra Reflectance spectra
Other Information,in air reference no window
Date Added,2018-08-06 21:06:09.539091

Data ID,FTIR_CARB_39_3
Sample ID,CRB106
Mineral Name,Siderite
Locality,Snarum/ Norway
Grain Size,<45 um
Viewing Geometry,i=35/ e=0
Resolution,~3 cm-1
Formula,MgCO3
Composition,XRD shows only magnesite.

Wavelength
2.001142,0.40052
2.003474,0.400971
2.005812,0.400519
2.008155,0.400474
2.010504,0.401298
2.012858,0.4022
2.015217,0.402314
2.017582,0.4025854
2.019952,0.404714
2.022328,0.404379
2.024709,0.405281
2.027096,0.4059589
2.029488,0.4060541
2.031886,0.40687
2.034289,0.407594
2.036698,0.408632
2.039113,0.408611
2.041533,0.409496
2.043959,0.409872
2.046391,0.409763
2.048828,0.410798
2.051271,0.411086
2.05372,0.411927
2.056175,0.412226
2.058635,0.412864
2.061101,0.413509
2.063573,0.41364
2.066051,0.4142406
2.068534,0.414031
2.071024,0.414562
2.073519,0.414799
2.07602,0.415351
2.078528,0.416052
2.081041,0.415959
2.08356,0.4163768
2.086085,0.4165692
2.088617,0.417217
2.091154,0.417203
2.093697,0.417724
2.096247,0.418475
2.098803,0.419253
2.101364,0.419869
2.103932,0.420876
2.106506,0.421953
2.109087,0.423322
2.111673,0.424597
2.114266,0.424124
2.116865,0.424831
2.119471,0.425418
2.122082,0.425328
2.1247,0.424868
2.127325,0.424773
2.129956,0.424836
2.132593,0.425846
2.135237,0.426067
2.137887,0.425861
2.140544,0.426677
2.143207,0.4268924
2.145876,0.426475
2.148553,0.426749
2.151235,0.426546
2.153925,0.425877
2.156621,0.425744
2.159324,0.426131
2.162033,0.426766
2.164749,0.426326
2.167472,0.426013
2.170202,0.4267175
2.172938,0.42654
2.175682,0.425912
2.178432,0.426893
2.181189,0.42658
2.183952,0.426513
2.186723,0.427265
2.189501,0.427691
2.192285,0.428116
2.195077,0.426846
2.197876,0.42714
2.200682,0.427614
2.203494,0.427339
2.206314,0.426766
2.209141,0.426312
2.211975,0.425977
2.214817,0.426252
2.217665,0.4264986
2.220521,0.425868
2.223384,0.425165
2.226254,0.424774
2.229132,0.424349
2.232017,0.424603
2.23491,0.423857
2.237809,0.423083
2.240717,0.4225
2.243631,0.4221553
2.246554,0.421239
2.249483,0.420739
2.252421,0.420586
2.255365,0.419695
2.258318,0.419244
2.261278,0.418654
2.264246,0.417834
2.267221,0.417323
2.270204,0.417335
2.273195,0.416752
2.276194,0.416131
2.279201,0.415429
2.282215,0.414506
2.285237,0.4136241
2.288268,0.412739
2.291306,0.4117335
2.294352,0.411306
2.297406,0.410741
2.300468,0.410072
2.303539,0.4096581
2.306617,0.409215
2.309703,0.408815
2.312798,0.407855
2.315901,0.408132
2.319012,0.4074447
2.322131,0.406751
2.325259,0.406813
2.328395,0.406285
2.33154,0.406058
2.334692,0.405848
2.337854,0.405748
2.341023,0.4051265
2.344201,0.404502
2.347388,0.405229
2.350583,0.405152
2.353787,0.406165
2.357,0.406297
2.360221,0.405892
2.363451,0.406063
2.36669,0.405714
2.369937,0.405957
2.373194,0.406198
2.376459,0.406439
2.379733,0.405882
2.383016,0.406114
2.386308,0.406391
2.389609,0.406072
2.392919,0.4058689
2.396238,0.405835
2.399566,0.405431
2.402903,0.404921
2.40625,0.404553
2.409606,0.4044763
2.412971,0.404005
2.416345,0.40397
2.419729,0.403332
2.423122,0.402503
2.426524,0.401979
2.429936,0.40129
2.433358,0.4001166
2.436789,0.399696
2.440229,0.398754
2.443679,0.397782
2.447139,0.396658
2.450609,0.395499
2.454088,0.395269
2.457577,0.394688
2.461076,0.393499
2.464585,0.392379
2.468104,0.391202
2.471632,0.3903711
2.475171,0.389717
2.47872,0.389139
2.482278,0.388127
2.485847,0.387209
2.489427,0.386516
2.493016,0.385157
2.496615,0.384849
2.500225,0.384039
2.503845,0.383047
2.507476,0.382282
2.511117,0.381421
2.514769,0.380564
2.518431,0.379846
2.522103,0.379663
2.525787,0.379118
2.52948,0.37892
2.533185,0.379638
2.5369,0.379067
2.540627,0.378142
2.544364,0.379714
2.548112,0.379588
2.55187,0.380803
2.55564,0.37997
2.559421,0.382316
2.563213,0.388595
2.567016,0.3859061
2.570831,0.388277
2.574656,0.390801
2.578493,0.390964
2.582342,0.392763
2.586201,0.393776
2.590072,0.39204
2.593955,0.39847
2.597849,0.394003
2.601755,0.391616
2.605672,0.397505
2.609601,0.392704
2.613542,0.390317
2.617495,0.394926
2.621459,0.391121
2.625435,0.387989
2.629424,0.390873
2.633424,0.388227
2.637437,0.383312
2.641461,0.382628
2.645498,0.38231
2.649547,0.379546
2.653609,0.380379
2.657682,0.377078
2.661768,0.375812
2.665867,0.381226
2.669978,0.379588
2.674102,0.3698986
2.678238,0.371347
2.682387,0.358146
2.686549,0.351677
2.690724,0.339222
2.694911,0.3321817
2.699112,0.31192
2.703325,0.298453
2.707552,0.292391
2.711791,0.2947783
2.716044,0.281667
2.72031,0.28366
2.724589,0.27376
2.728882,0.255028
2.733188,0.2429472
2.737508,0.232493
2.741841,0.2242507
2.746188,0.208059
2.750549,0.1971353
2.754923,0.190031
2.759311,0.178547
2.763713,0.169249
2.768129,0.160494
2.772559,0.152292
2.777003,0.14455
2.781461,0.137748
2.785934,0.131742
2.79042,0.125822
2.794922,0.119833
2.799437,0.11508
2.803967,0.110593
2.808512,0.106228
2.813071,0.101868
2.817645,0.0984349
2.822233,0.09542043
2.826837,0.09232591
2.831455,0.08934373
2.836089,0.08641511
2.840737,0.08354362
2.845401,0.08215429
2.85008,0.07993527
2.854774,0.07799762
2.859484,0.0761761
2.864209,0.07509274
2.868949,0.07329854
2.873705,0.07225763
2.878477,0.07071119
2.883265,0.06989597
2.888068,0.06986002
2.892887,0.06860143
2.897723,0.06701139
2.902574,0.06579549
2.907441,0.06550893
2.912325,0.06481056
2.917225,0.0658127
2.922142,0.0647248
2.927075,0.06299232
2.932024,0.06252296
2.93699,0.06294471
2.941973,0.06275764
2.946973,0.06467885
2.951989,0.06374635
2.957023,0.06422389
2.962073,0.06210426
2.967141,0.06269254
2.972226,0.0636206
2.977328,0.06635285
2.982448,0.06405438
2.987586,0.06379907
2.99274,0.06562249
2.997913,0.06504019
3.003103,0.06673448
3.008312,0.06576492
3.013538,0.06683837
3.018782,0.06691085
3.024044,0.06719636
3.029325,0.06952089
3.034624,0.07191254
3.039942,0.06952593
3.045278,0.07126359
3.050632,0.06992413
3.056006,0.07001715
3.061398,0.07145237
3.066809,0.0734909
3.072239,0.07188895
3.077689,0.0726842
3.083157,0.07303216
3.088645,0.07400822
3.094153,0.07345681
3.099679,0.07536013
3.105226,0.07507332
3.110792,0.07496404
3.116378,0.07541406
3.121985,0.07582278
3.127611,0.07630222
3.133257,0.07716513
3.138924,0.0776612
3.144611,0.07860884
3.150319,0.07936068
3.156047,0.08024097
3.161796,0.08068326
3.167566,0.08154608
3.173356,0.0826223
3.179168,0.08508899
3.185001,0.08580207
3.190856,0.0859799
3.196731,0.08827948
3.202629,0.08799262
3.208548,0.08909153
3.214488,0.09402539
3.220451,0.09464857
3.226436,0.0936732
3.232443,0.09382769
3.238472,0.09472957
3.244523,0.09657333
3.250598,0.09872826
3.256694,0.101597
3.262814,0.09934032
3.268956,0.100785
3.275122,0.1003
3.28131,0.1011
3.287522,0.102988
3.293757,0.104215
3.300016,0.104675
3.306299,0.104516
3.312605,0.10328
3.318936,0.103084
3.32529,0.104778
3.331669,0.104856
3.338072,0.09991903
3.344499,0.09999669
3.350952,0.101111
3.357429,0.09938294
3.363931,0.101285
3.370458,0.101798
3.37701,0.100967
3.383588,0.101563
3.390191,0.102414
3.39682,0.10457
3.403475,0.1065625
3.410156,0.106551
3.416862,0.105522
3.423596,0.107983
3.430355,0.107778
3.437141,0.110193
3.443954,0.113519
3.450794,0.110104
3.457661,0.110199
3.464556,0.111162
3.471477,0.110518
3.478426,0.110911
3.485403,0.111598
3.492408,0.114812
3.499441,0.113445
3.506502,0.115523
3.513592,0.117674
3.52071,0.120912
3.527857,0.123981
3.535032,0.130117
3.542237,0.131289
3.549471,0.134083
3.556735,0.137648
3.564028,0.140876
3.571351,0.144653
3.578704,0.146909
3.586088,0.150937
3.593501,0.153166
3.600946,0.155691
3.608421,0.156545
3.615926,0.160064
3.623463,0.161196
3.631032,0.1628411
3.638632,0.164715
3.646263,0.166797
3.653927,0.169184
3.661623,0.1700921
3.669351,0.172015
3.677111,0.174133
3.684905,0.176482
3.692731,0.177037
3.70059,0.178845
3.708483,0.180427
3.716409,0.181932
3.72437,0.183687
3.732364,0.184904
3.740392,0.186103
3.748455,0.188004
3.756553,0.188137
3.764685,0.188481
3.772853,0.188406
3.781056,0.186623
3.789294,0.183159
3.797568,0.178339
3.805879,0.1738
3.814225,0.169763
3.822609,0.166967
3.831029,0.164667
3.839486,0.163362
3.84798,0.162226
3.856512,0.161282
3.865081,0.160685
3.873689,0.16026
3.882334,0.159779
3.891019,0.159713
3.899742,0.159545
3.908504,0.159199
3.917305,0.1586921
3.926146,0.15805
3.935027,0.157218
3.943948,0.155995
3.952909,0.154605
3.961911,0.152956
3.970954,0.150338
3.980038,0.147968
3.989163,0.147499
3.99833,0.149527
4.00754,0.154232
4.016791,0.160484
4.026086,0.167842
4.035423,0.1768013
4.044804,0.186845
4.054228,0.197629
4.063695,0.20775
4.073207,0.217261
4.082764,0.226099
4.092365,0.234009
4.102012,0.241231
4.111703,0.247525
4.121441,0.253047
4.131224,0.25818
4.141054,0.262759
4.150931,0.266663
4.160854,0.2709183
4.170826,0.275101
4.180844,0.278817
4.190911,0.283885
4.201026,0.2939249
4.21119,0.314153
4.221404,0.338771
4.231666,0.359681
4.241979,0.3662073
4.252341,0.348759
4.262754,0.344356
4.273219,0.362755
4.283734,0.363514
4.294301,0.364994
4.30492,0.362692
4.315592,0.3569936
4.326317,0.351816
4.337095,0.347543
4.347926,0.345372
4.358811,0.345436
4.369751,0.345906
4.380746,0.347312
4.391796,0.350566
4.402902,0.354046
4.414064,0.357306
4.425282,0.360223
4.436558,0.36321
4.447891,0.366206
4.459281,0.369436
4.47073,0.373121
4.482238,0.376437
4.493805,0.380049
4.505431,0.383513
4.517118,0.38734
4.528865,0.3908553
4.540674,0.394349
4.552543,0.397807
4.564475,0.40111
4.57647,0.4040295
4.588527,0.406879
4.600648,0.4097979
4.612833,0.412602
4.625082,0.415342
4.637397,0.418427
4.649777,0.42249
4.662223,0.427008
4.674735,0.432834
4.687315,0.438796
4.699962,0.444668
4.712678,0.450698
4.725463,0.4566677
4.738316,0.461663
4.75124,0.466499
4.764234,0.471291
4.777299,0.475907
4.790436,0.480849
4.803645,0.484331
4.816927,0.488538
4.830283,0.492333
4.843712,0.49755
4.857216,0.49971
4.870795,0.50329
4.884451,0.5065793
4.898182,0.511551
4.911991,0.513783
4.925878,0.517277
4.939844,0.521321
4.953888,0.526877
4.968013,0.5283048
4.982218,0.5309454
4.996504,0.534148
5.010872,0.539243
5.025323,0.545985
5.039857,0.544629
5.054475,0.547828
5.069179,0.551055
5.083967,0.558438
5.098842,0.557782
5.113804,0.561044
5.128854,0.562956
5.143992,0.574169
5.15922,0.572058
5.174538,0.575345
5.189947,0.580558
5.205448,0.592724
5.221041,0.5915238
5.236728,0.595194
5.25251,0.594645
5.268386,0.599636
5.284358,0.607593
5.300428,0.608692
5.316595,0.607745
5.33286,0.610098
5.349226,0.6341
5.365692,0.6186015
5.382259,0.6177111
5.398928,0.618546
5.415701,0.639516
5.432579,0.628025
5.449561,0.622248
5.46665,0.640011
5.483846,0.625498
5.50115,0.614644
5.518564,0.625662
5.536087,0.6221189
5.553723,0.644689
5.57147,0.5627508
5.589332,0.609438
5.607307,0.617296
5.625399,0.630031
5.643607,0.65441
5.661934,0.643411
5.680379,0.654764
5.698945,0.660514
5.717633,0.682402
5.736443,0.678818
5.755377,0.6874816
5.774436,0.692927
5.793621,0.675589
5.812934,0.705248
5.832376,0.708578
5.851948,0.702243
5.871652,0.733122
5.891488,0.739682
5.911459,0.709957
5.931565,0.74793
5.951809,0.724872
5.97219,0.73685
5.992711,0.733547
6.013374,0.727692
6.034179,0.74277
6.055129,0.767499
6.076224,0.753343
6.097466,0.747404
6.118857,0.755688
6.140398,0.750196
6.162091,0.756944
6.183938,0.7642921
6.20594,0.751835
6.228099,0.753003
6.250416,0.7533317
6.272893,0.7577831
6.295533,0.759495
6.318336,0.764621
6.341304,0.789605
6.36444,0.791307
6.387745,0.791928
6.411221,0.841447
6.434869,0.8104442
6.458693,0.812769
6.482693,0.852407
6.506872,0.828201
6.531231,0.824496
6.555774,0.8439889
6.580501,0.849701
6.605415,0.8383139
6.630518,0.867803
6.655812,0.833129
6.6813,0.838839
6.706983,0.848497
6.732864,0.831391
6.758945,0.837928
6.785229,0.856311
6.811718,0.840575
6.838413,0.849131
6.865319,0.86173
6.892437,0.845577
6.919769,0.841692
6.947319,0.85594
6.975089,0.85427
7.003081,0.8547442
7.031298,0.868059
7.059743,0.861313
7.088419,0.859492
7.117329,0.865173
7.146475,0.876369
7.17586,0.87162
7.205487,0.873405
7.23536,0.869963
7.265481,0.878892
7.295854,0.875784
7.326481,0.883989
7.357366,0.879798
7.388512,0.881108
7.419922,0.882863
7.451601,0.892728
7.48355,0.889675
7.515774,0.890147
7.548277,0.893097
7.581061,0.897706
7.614131,0.898182
7.647491,0.898787
7.681143,0.900617
7.715093,0.902717
7.749343,0.905139
7.783899,0.906575
7.818764,0.908582
7.853942,0.911702
7.889437,0.913902
7.925254,0.916709
7.961398,0.918511
7.997872,0.920543
8.034682,0.923044
8.071832,0.924582
8.109326,0.926822
8.147169,0.928626
8.185368,0.92991
8.223925,0.931571
8.262847,0.932772
8.302139,0.934391
8.341805,0.936283
8.381852,0.9376307
8.422285,0.939474
8.463109,0.940662
8.504331,0.942098
8.545955,0.94332
8.587989,0.944588
8.630437,0.945831
8.673307,0.947154
8.716604,0.94836
8.760335,0.949719
8.804507,0.951291
8.849125,0.95234
8.894198,0.953755
8.939732,0.955388
8.985733,0.95649
9.03221,0.956896
9.07917,0.957388
9.12662,0.957946
9.174568,0.9574967
9.223022,0.95739
9.27199,0.957088
9.32148,0.957307
9.3715,0.957901
9.42206,0.958176
9.473167,0.958957
9.524832,0.960059
9.577062,0.960942
9.629868,0.96177
9.683259,0.962392
9.737244,0.963048
9.791834,0.963696
9.847039,0.964298
9.902869,0.9647737
9.959336,0.964902
10.0164,0.965656
10.0742,0.966236
10.1327,0.966899
10.1918,0.967718
10.2516,0.9684922
10.3121,0.969631
10.37336,0.97036
10.4353,0.970969
10.498,0.971175
10.5615,0.971592
10.6258,0.971583
10.69079,0.97179
10.7566,0.972008
10.8233,0.972337
10.8907,0.972452
10.9591,0.9724742
11.02824,0.972947
11.0983,0.972616
11.1693,0.972651
11.2411,0.973201
11.3139,0.973278
11.3877,0.973014
11.46238,0.9734519
11.5381,0.973632
11.6148,0.973589
11.6925,0.973621
11.77129,0.973586
11.8511,0.973739
11.9321,0.97438
12.0141,0.974579
12.0973,0.974926
12.1816,0.974651
12.26716,0.974566
12.3539,0.974638
12.4419,0.974941
12.5311,0.974709
12.6216,0.9748129
12.7134,0.974685
12.8066,0.974779
12.9012,0.974991
12.9971,0.975173
13.09451,0.975404
13.1934,0.97559
13.29374,0.975892
13.3956,0.976137
13.4991,0.976273
13.6042,0.9755354
13.7109,0.975588
13.8194,0.9745201
13.9295,0.973256
14.0414,0.971843
14.1552,0.969758
14.2707,0.968043
14.3882,0.966253
14.5077,0.9629
14.6291,0.957875
14.7526,0.951032
14.8782,0.943062
15.00592,0.927681
15.1359,0.907307
15.2681,0.873268
15.4026,0.824953
15.5396,0.762016
15.679,0.678675
15.8209,0.593104
15.9654,0.521062