File: csv_library/FTIR_CARB_39_2.csv
Database of Origin,University of Winnipeg Spectrophotometer Facility
Sample Description,Carbonates and Oxolates -  D&P Spectra Reflectance spectra
Other Information,in air reference no window
Date Added,2018-08-06 21:06:09.513860

Data ID,FTIR_CARB_39_2
Sample ID,CRB105
Mineral Name,Huntite
Locality,Currant Creek/ Nevada/ USA
Grain Size,<45 um
Viewing Geometry,i=35/ e=0
Resolution,~3 cm-1
Formula,Mg3Ca(CO3)5
Composition,Huntite plus a few very minor peaks.

Wavelength
2.001142,0.336917
2.003474,0.337653
2.005812,0.33739
2.008155,0.338465
2.010504,0.338887
2.012858,0.338955
2.015217,0.339665
2.017582,0.339399
2.019952,0.3398956
2.022328,0.340552
2.024709,0.340358
2.027096,0.340794
2.029488,0.340518
2.031886,0.34072
2.034289,0.340874
2.036698,0.340932
2.039113,0.341319
2.041533,0.341578
2.043959,0.341788
2.046391,0.341714
2.048828,0.342045
2.051271,0.342101
2.05372,0.342343
2.056175,0.3422201
2.058635,0.342051
2.061101,0.34196
2.063573,0.341574
2.066051,0.342461
2.068534,0.342482
2.071024,0.342098
2.073519,0.34181
2.07602,0.341775
2.078528,0.3422431
2.081041,0.341854
2.08356,0.341526
2.086085,0.342008
2.088617,0.34224
2.091154,0.343067
2.093697,0.342495
2.096247,0.342541
2.098803,0.343041
2.101364,0.3436734
2.103932,0.3438594
2.106506,0.34455
2.109087,0.345001
2.111673,0.344831
2.114266,0.344782
2.116865,0.345417
2.119471,0.345522
2.122082,0.344419
2.1247,0.344619
2.127325,0.343986
2.129956,0.34391
2.132593,0.345511
2.135237,0.3452233
2.137887,0.345264
2.140544,0.345577
2.143207,0.346051
2.145876,0.34593
2.148553,0.345878
2.151235,0.345251
2.153925,0.344984
2.156621,0.344906
2.159324,0.345121
2.162033,0.344622
2.164749,0.344303
2.167472,0.344076
2.170202,0.344253
2.172938,0.344134
2.175682,0.34272
2.178432,0.343375
2.181189,0.3425054
2.183952,0.342434
2.186723,0.342057
2.189501,0.342461
2.192285,0.342217
2.195077,0.340959
2.197876,0.341095
2.200682,0.3408578
2.203494,0.340682
2.206314,0.339847
2.209141,0.339318
2.211975,0.338942
2.214817,0.338638
2.217665,0.338773
2.220521,0.337881
2.223384,0.337115
2.226254,0.3367862
2.229132,0.336188
2.232017,0.335854
2.23491,0.334694
2.237809,0.333413
2.240717,0.332764
2.243631,0.331811
2.246554,0.331797
2.249483,0.331042
2.252421,0.330365
2.255365,0.3292128
2.258318,0.328657
2.261278,0.327727
2.264246,0.326822
2.267221,0.325654
2.270204,0.325179
2.273195,0.325329
2.276194,0.323983
2.279201,0.322703
2.282215,0.321989
2.285237,0.320582
2.288268,0.318982
2.291306,0.318071
2.294352,0.316997
2.297406,0.316043
2.300468,0.314607
2.303539,0.313029
2.306617,0.310604
2.309703,0.3083403
2.312798,0.306
2.315901,0.305005
2.319012,0.304659
2.322131,0.304918
2.325259,0.306809
2.328395,0.308635
2.33154,0.309279
2.334692,0.30954
2.337854,0.310904
2.341023,0.312686
2.344201,0.315637
2.347388,0.318169
2.350583,0.319453
2.353787,0.320567
2.357,0.321027
2.360221,0.320688
2.363451,0.320278
2.36669,0.319254
2.369937,0.318159
2.373194,0.316668
2.376459,0.315502
2.379733,0.314084
2.383016,0.313365
2.386308,0.312977
2.389609,0.31292
2.392919,0.312185
2.396238,0.31169
2.399566,0.3117634
2.402903,0.311304
2.40625,0.310817
2.409606,0.31053
2.412971,0.309516
2.416345,0.308847
2.419729,0.306889
2.423122,0.305428
2.426524,0.304359
2.429936,0.303045
2.433358,0.302206
2.436789,0.30175
2.440229,0.300307
2.443679,0.29954
2.447139,0.298243
2.450609,0.297331
2.454088,0.296658
2.457577,0.295855
2.461076,0.294831
2.464585,0.293503
2.468104,0.292676
2.471632,0.291648
2.475171,0.290954
2.47872,0.290037
2.482278,0.289074
2.485847,0.2877702
2.489427,0.286618
2.493016,0.284889
2.496615,0.283804
2.500225,0.28285
2.503845,0.282444
2.507476,0.282502
2.511117,0.28273
2.514769,0.282901
2.518431,0.283924
2.522103,0.28524
2.525787,0.286354
2.52948,0.28781
2.533185,0.290686
2.5369,0.291709
2.540627,0.291542
2.544364,0.2928198
2.548112,0.2922916
2.55187,0.292656
2.55564,0.291054
2.559421,0.292648
2.563213,0.297496
2.567016,0.292968
2.570831,0.293811
2.574656,0.2955747
2.578493,0.293903
2.582342,0.295968
2.586201,0.2968171
2.590072,0.294735
2.593955,0.301902
2.597849,0.2956
2.601755,0.294035
2.605672,0.298846
2.609601,0.293062
2.613542,0.291248
2.617495,0.295709
2.621459,0.291755
2.625435,0.288321
2.629424,0.291656
2.633424,0.287974
2.637437,0.282136
2.641461,0.280669
2.645498,0.27982
2.649547,0.275774
2.653609,0.275408
2.657682,0.270991
2.661768,0.269052
2.665867,0.273279
2.669978,0.267834
2.674102,0.2504954
2.678238,0.239667
2.682387,0.209481
2.686549,0.182071
2.690724,0.144505
2.694911,0.11782
2.699112,0.0866086
2.703325,0.07420859
2.707552,0.07188077
2.711791,0.07571205
2.716044,0.06733819
2.72031,0.08182589
2.724589,0.08184776
2.728882,0.07283668
2.733188,0.07102674
2.737508,0.06831336
2.741841,0.06908718
2.746188,0.06264621
2.750549,0.06289803
2.754923,0.06537845
2.759311,0.06240267
2.763713,0.06237905
2.768129,0.06119151
2.772559,0.06052495
2.777003,0.05887602
2.781461,0.05819926
2.785934,0.05721686
2.79042,0.0561318
2.794922,0.05460036
2.799437,0.05350534
2.803967,0.05355088
2.808512,0.05242752
2.813071,0.0511365
2.817645,0.04984301
2.822233,0.04900378
2.826837,0.04837993
2.831455,0.04728284
2.836089,0.04667239
2.840737,0.0449064
2.845401,0.04438736
2.85008,0.04333136
2.854774,0.04262461
2.859484,0.0417204
2.864209,0.04153821
2.868949,0.04104916
2.873705,0.04028597
2.878477,0.03939804
2.883265,0.03841968
2.888068,0.03819709
2.892887,0.03803333
2.897723,0.03682789
2.902574,0.03606242
2.907441,0.03574631
2.912325,0.0351227
2.917225,0.03595875
2.922142,0.03534716
2.927075,0.03351013
2.932024,0.03367986
2.93699,0.03415944
2.941973,0.0336212
2.946973,0.03540506
2.951989,0.03444902
2.957023,0.03497185
2.962073,0.03282522
2.967141,0.03327973
2.972226,0.03370031
2.977328,0.03559164
2.982448,0.03359685
2.987586,0.03313217
2.99274,0.03479668
2.997913,0.03431449
3.003103,0.03574643
3.008312,0.03417966
3.013538,0.03528095
3.018782,0.03501976
3.024044,0.03517489
3.029325,0.03741948
3.034624,0.03943203
3.039942,0.03697098
3.045278,0.03877781
3.050632,0.03737914
3.056006,0.0373004
3.061398,0.03825209
3.066809,0.03980548
3.072239,0.03791053
3.077689,0.038609
3.083157,0.03904566
3.088645,0.04000673
3.094153,0.03914682
3.099679,0.04093044
3.105226,0.04053294
3.110792,0.03982919
3.116378,0.04024351
3.121985,0.04067947
3.127611,0.04056621
3.133257,0.04132879
3.138924,0.04178266
3.144611,0.042521
3.150319,0.04334268
3.156047,0.04387533
3.161796,0.04468338
3.167566,0.04496577
3.173356,0.04581933
3.179168,0.04842463
3.185001,0.04904053
3.190856,0.04871276
3.196731,0.05050032
3.202629,0.05009054
3.208548,0.0510238
3.214488,0.05573289
3.220451,0.05598793
3.226436,0.0551511
3.232443,0.05494676
3.238472,0.05596039
3.244523,0.05755358
3.250598,0.0596313
3.256694,0.06131142
3.262814,0.05591857
3.268956,0.05527844
3.275122,0.05412286
3.28131,0.05516458
3.287522,0.05745576
3.293757,0.05941158
3.300016,0.06008166
3.306299,0.06026105
3.312605,0.05946071
3.318936,0.06071278
3.32529,0.06352911
3.331669,0.06524898
3.338072,0.06237547
3.344499,0.06411893
3.350952,0.06586796
3.357429,0.0640339
3.363931,0.06535347
3.370458,0.0655578
3.37701,0.06477068
3.383588,0.06490261
3.390191,0.06564324
3.39682,0.06685013
3.403475,0.06725283
3.410156,0.06499716
3.416862,0.06189114
3.423596,0.06384885
3.430355,0.0648275
3.437141,0.06810392
3.443954,0.07332909
3.450794,0.07243704
3.457661,0.07494098
3.464556,0.0788298
3.471477,0.08075666
3.478426,0.08388832
3.485403,0.08867576
3.492408,0.0968985
3.499441,0.09927835
3.506502,0.103882
3.513592,0.107718
3.52071,0.111922
3.527857,0.114862
3.535032,0.120577
3.542237,0.122052
3.549471,0.1241824
3.556735,0.126544
3.564028,0.128654
3.571351,0.131816
3.578704,0.133315
3.586088,0.136533
3.593501,0.1381
3.600946,0.139487
3.608421,0.140021
3.615926,0.142879
3.623463,0.1436782
3.631032,0.144776
3.638632,0.146271
3.646263,0.147342
3.653927,0.148859
3.661623,0.148363
3.669351,0.147553
3.677111,0.14671
3.684905,0.1464854
3.692731,0.14551
3.70059,0.14682
3.708483,0.147834
3.716409,0.147266
3.72437,0.14555
3.732364,0.142489
3.740392,0.139223
3.748455,0.136484
3.756553,0.13165
3.764685,0.127769
3.772853,0.123829
3.781056,0.119637
3.789294,0.1169029
3.797568,0.115794
3.805879,0.116296
3.814225,0.116576
3.822609,0.117016
3.831029,0.1167477
3.839486,0.115669
3.84798,0.113474
3.856512,0.111617
3.865081,0.110145
3.873689,0.109011
3.882334,0.108105
3.891019,0.106206
3.899742,0.104068
3.908504,0.101805
3.917305,0.100421
3.926146,0.09959558
3.935027,0.09964126
3.943948,0.101607
3.952909,0.105809
3.961911,0.113648
3.970954,0.1262907
3.980038,0.1419
3.989163,0.155764
3.99833,0.168529
4.00754,0.179857
4.016791,0.189191
4.026086,0.196779
4.035423,0.203187
4.044804,0.208274
4.054228,0.212675
4.063695,0.21637
4.073207,0.21962
4.082764,0.2225393
4.092365,0.225021
4.102012,0.227591
4.111703,0.2297495
4.121441,0.232233
4.131224,0.234419
4.141054,0.23702
4.150931,0.239172
4.160854,0.241789
4.170826,0.244136
4.180844,0.246598
4.190911,0.249968
4.201026,0.259043
4.21119,0.279125
4.221404,0.303529
4.231666,0.324292
4.241979,0.32992
4.252341,0.309925
4.262754,0.30386
4.273219,0.322368
4.283734,0.322716
4.294301,0.323157
4.30492,0.319538
4.315592,0.312299
4.326317,0.306299
4.337095,0.301238
4.347926,0.298439
4.358811,0.2981
4.369751,0.298583
4.380746,0.299891
4.391796,0.303164
4.402902,0.306371
4.414064,0.309817
4.425282,0.313104
4.436558,0.316233
4.447891,0.319366
4.459281,0.32268
4.47073,0.325992
4.482238,0.328808
4.493805,0.331939
4.505431,0.335048
4.517118,0.338256
4.528865,0.341468
4.540674,0.3440516
4.552543,0.347066
4.564475,0.350053
4.57647,0.353026
4.588527,0.356675
4.600648,0.360973
4.612833,0.365784
4.625082,0.370895
4.637397,0.376332
4.649777,0.381663
4.662223,0.386376
4.674735,0.39154
4.687315,0.39614
4.699962,0.400463
4.712678,0.405079
4.725463,0.410031
4.738316,0.4141611
4.75124,0.418343
4.764234,0.422688
4.777299,0.426728
4.790436,0.431847
4.803645,0.435325
4.816927,0.439497
4.830283,0.44305
4.843712,0.448392
4.857216,0.450475
4.870795,0.4539
4.884451,0.457287
4.898182,0.462229
4.911991,0.464468
4.925878,0.468189
4.939844,0.472119
4.953888,0.47822
4.968013,0.479562
4.982218,0.482263
4.996504,0.485421
5.010872,0.490412
5.025323,0.497268
5.039857,0.495061
5.054475,0.49765
5.069179,0.501849
5.083967,0.510782
5.098842,0.5103813
5.113804,0.514485
5.128854,0.5176375
5.143992,0.529768
5.15922,0.525731
5.174538,0.527773
5.189947,0.532498
5.205448,0.544676
5.221041,0.542053
5.236728,0.545113
5.25251,0.544176
5.268386,0.549427
5.284358,0.557764
5.300428,0.558669
5.316595,0.557115
5.33286,0.559328
5.349226,0.585098
5.365692,0.567222
5.382259,0.5663421
5.398928,0.5679224
5.415701,0.592937
5.432579,0.584295
5.449561,0.583322
5.46665,0.608198
5.483846,0.5979225
5.50115,0.588408
5.518564,0.5999942
5.536087,0.597271
5.553723,0.611346
5.57147,0.519246
5.589332,0.588846
5.607307,0.60361
5.625399,0.61457
5.643607,0.638206
5.661934,0.6238066
5.680379,0.634832
5.698945,0.640159
5.717633,0.6615434
5.736443,0.656426
5.755377,0.668839
5.774436,0.674182
5.793621,0.654927
5.812934,0.687985
5.832376,0.691828
5.851948,0.685443
5.871652,0.718408
5.891488,0.727576
5.911459,0.696532
5.931565,0.737792
5.951809,0.713161
5.97219,0.726424
5.992711,0.724194
6.013374,0.717357
6.034179,0.7338611
6.055129,0.761259
6.076224,0.745649
6.097466,0.739537
6.118857,0.749186
6.140398,0.742947
6.162091,0.749868
6.183938,0.757731
6.20594,0.743969
6.228099,0.745843
6.250416,0.746046
6.272893,0.749967
6.295533,0.749457
6.318336,0.753478
6.341304,0.777584
6.36444,0.777443
6.387745,0.774983
6.411221,0.826379
6.434869,0.788656
6.458693,0.789882
6.482693,0.834341
6.506872,0.805935
6.531231,0.80172
6.555774,0.823433
6.580501,0.829096
6.605415,0.81674
6.630518,0.84943
6.655812,0.810866
6.6813,0.817785
6.706983,0.829077
6.732864,0.810574
6.758945,0.818104
6.785229,0.838495
6.811718,0.821657
6.838413,0.8314294
6.865319,0.844941
6.892437,0.827098
6.919769,0.822894
6.947319,0.838975
6.975089,0.837376
7.003081,0.837804
7.031298,0.851512
7.059743,0.84406
7.088419,0.841998
7.117329,0.848129
7.146475,0.860614
7.17586,0.855783
7.205487,0.860012
7.23536,0.857298
7.265481,0.867141
7.295854,0.864395
7.326481,0.873509
7.357366,0.869441
7.388512,0.870774
7.419922,0.872654
7.451601,0.883013
7.48355,0.880064
7.515774,0.880588
7.548277,0.88372
7.581061,0.888393
7.614131,0.888794
7.647491,0.8890192
7.681143,0.89078
7.715093,0.89278
7.749343,0.894934
7.783899,0.896249
7.818764,0.89794
7.853942,0.900943
7.889437,0.902685
7.925254,0.905229
7.961398,0.906696
7.997872,0.908341
8.034682,0.910775
8.071832,0.912345
8.109326,0.914429
8.147169,0.915944
8.185368,0.9176589
8.223925,0.919429
8.262847,0.920609
8.302139,0.922133
8.341805,0.923799
8.381852,0.925282
8.422285,0.926894
8.463109,0.928078
8.504331,0.929511
8.545955,0.930606
8.587989,0.931717
8.630437,0.932695
8.673307,0.933616
8.716604,0.934749
8.760335,0.935972
8.804507,0.937242
8.849125,0.938439
8.894198,0.939779
8.939732,0.941281
8.985733,0.942264
9.03221,0.942875
9.07917,0.942985
9.12662,0.943445
9.174568,0.943223
9.223022,0.942834
9.27199,0.942625
9.32148,0.942939
9.3715,0.943448
9.42206,0.944005
9.473167,0.944767
9.524832,0.945858
9.577062,0.946984
9.629868,0.947816
9.683259,0.94864
9.737244,0.948994
9.791834,0.949881
9.847039,0.95059
9.902869,0.951104
9.959336,0.951536
10.0164,0.95224
10.0742,0.953159
10.1327,0.954061
10.1918,0.954926
10.2516,0.955896
10.3121,0.957319
10.37336,0.95806
10.4353,0.958652
10.498,0.959077
10.5615,0.959531
10.6258,0.959693
10.69079,0.959882
10.7566,0.960228
10.8233,0.960582
10.8907,0.960633
10.9591,0.9607
11.02824,0.961256
11.0983,0.960938
11.1693,0.96084
11.2411,0.961405
11.3139,0.961618
11.3877,0.961388
11.46238,0.9617028
11.5381,0.962151
11.6148,0.9621603
11.6925,0.962055
11.77129,0.9623039
11.8511,0.962915
11.9321,0.963376
12.0141,0.96384
12.0973,0.964003
12.1816,0.964072
12.26716,0.964022
12.3539,0.96405
12.4419,0.964321
12.5311,0.964262
12.6216,0.964184
12.7134,0.964146
12.8066,0.964082
12.9012,0.9645204
12.9971,0.96524
13.09451,0.965076
13.1934,0.965465
13.29374,0.96565
13.3956,0.966079
13.4991,0.966224
13.6042,0.965736
13.7109,0.966411
13.8194,0.965395
13.9295,0.964118
14.0414,0.962778
14.1552,0.961425
14.2707,0.95952
14.3882,0.957985
14.5077,0.955139
14.6291,0.950454
14.7526,0.943857
14.8782,0.936202
15.00592,0.922024
15.1359,0.901064
15.2681,0.8696811
15.4026,0.8233768
15.5396,0.760216
15.679,0.675875
15.8209,0.591104
15.9654,0.5126383