File: csv_library/FTIR_CARB_39_1.csv
Database of Origin,University of Winnipeg Spectrophotometer Facility
Sample Description,Carbonates and Oxolates -  D&P Spectra Reflectance spectra
Other Information,"Designs and Prototypes 102F spectra/Relative to infragold 1"" disk/Reflectance only"
Date Added,2018-08-06 21:06:09.454952

Data ID,FTIR_CARB_39_1
Sample ID,CRB105
Mineral Name,huntite
Locality,Currant Creek/ Nevada/ USA
Grain Size,<45 um
Viewing Geometry,i=35/ e=0
Resolution,~3 cm-1
Formula,Mg3Ca(CO3)4
Composition,Huntite plus a few very minor peaks.

Wavelength
2.001142,0.672702
2.003474,0.673168
2.005812,0.674204
2.008155,0.67348
2.010504,0.675669
2.012858,0.676841
2.015217,0.675652
2.017582,0.67714
2.019952,0.677066
2.022328,0.677861
2.024709,0.679263
2.027096,0.679108
2.029488,0.680644
2.031886,0.680385
2.034289,0.679879
2.036698,0.681403
2.039113,0.682095
2.041533,0.68298
2.043959,0.683268
2.046391,0.683985
2.048828,0.683614
2.051271,0.684187
2.05372,0.68483
2.056175,0.6846
2.058635,0.685512
2.061101,0.68507
2.063573,0.685718
2.066051,0.686415
2.068534,0.685839
2.071024,0.686125
2.073519,0.686181
2.07602,0.68656
2.078528,0.685984
2.081041,0.686134
2.08356,0.686326
2.086085,0.686113
2.088617,0.686257
2.091154,0.68622
2.093697,0.687472
2.096247,0.686959
2.098803,0.688591
2.101364,0.690213
2.103932,0.689239
2.106506,0.689858
2.109087,0.690899
2.111673,0.691747
2.114266,0.691339
2.116865,0.692179
2.119471,0.691621
2.122082,0.691249
2.1247,0.691066
2.127325,0.691173
2.129956,0.691789
2.132593,0.692889
2.135237,0.692918
2.137887,0.693767
2.140544,0.693784
2.143207,0.6941244
2.145876,0.693494
2.148553,0.694128
2.151235,0.693778
2.153925,0.694824
2.156621,0.694767
2.159324,0.694998
2.162033,0.694073
2.164749,0.693307
2.167472,0.694773
2.170202,0.693233
2.172938,0.692981
2.175682,0.692874
2.178432,0.691908
2.181189,0.6922274
2.183952,0.690874
2.186723,0.6909593
2.189501,0.691101
2.192285,0.691939
2.195077,0.690915
2.197876,0.690862
2.200682,0.690657
2.203494,0.68952
2.206314,0.6902456
2.209141,0.691086
2.211975,0.68882
2.214817,0.687779
2.217665,0.686679
2.220521,0.684096
2.223384,0.6835819
2.226254,0.6836904
2.229132,0.682194
2.232017,0.681165
2.23491,0.67898
2.237809,0.678365
2.240717,0.675983
2.243631,0.674012
2.246554,0.673074
2.249483,0.670139
2.252421,0.6698856
2.255365,0.668595
2.258318,0.667547
2.261278,0.665113
2.264246,0.663434
2.267221,0.662079
2.270204,0.660598
2.273195,0.659766
2.276194,0.657505
2.279201,0.654633
2.282215,0.654381
2.285237,0.652636
2.288268,0.649416
2.291306,0.647135
2.294352,0.646677
2.297406,0.644693
2.300468,0.642478
2.303539,0.638976
2.306617,0.6369019
2.309703,0.632312
2.312798,0.629832
2.315901,0.628491
2.319012,0.62792
2.322131,0.629197
2.325259,0.633365
2.328395,0.6357217
2.33154,0.63871
2.334692,0.637982
2.337854,0.639246
2.341023,0.643592
2.344201,0.6481127
2.347388,0.652245
2.350583,0.655457
2.353787,0.65862
2.357,0.658685
2.360221,0.658583
2.363451,0.6589875
2.36669,0.657458
2.369937,0.655273
2.373194,0.653208
2.376459,0.650883
2.379733,0.647883
2.383016,0.646903
2.386308,0.646365
2.389609,0.645348
2.392919,0.643907
2.396238,0.644353
2.399566,0.643367
2.402903,0.642898
2.40625,0.643064
2.409606,0.640699
2.412971,0.639569
2.416345,0.636967
2.419729,0.634737
2.423122,0.6314894
2.426524,0.62974
2.429936,0.627311
2.433358,0.625975
2.436789,0.624258
2.440229,0.621938
2.443679,0.620878
2.447139,0.617422
2.450609,0.61675
2.454088,0.614954
2.457577,0.611838
2.461076,0.610619
2.464585,0.60967
2.468104,0.6080839
2.471632,0.607387
2.475171,0.605032
2.47872,0.603217
2.482278,0.601716
2.485847,0.598806
2.489427,0.596891
2.493016,0.594047
2.496615,0.592913
2.500225,0.591419
2.503845,0.591181
2.507476,0.591769
2.511117,0.592177
2.514769,0.593736
2.518431,0.595902
2.522103,0.598265
2.525787,0.601197
2.52948,0.604881
2.533185,0.608533
2.5369,0.6113459
2.540627,0.613751
2.544364,0.616307
2.548112,0.617339
2.55187,0.618363
2.55564,0.617028
2.559421,0.618826
2.563213,0.6226671
2.567016,0.619179
2.570831,0.620997
2.574656,0.622423
2.578493,0.622123
2.582342,0.624809
2.586201,0.624262
2.590072,0.622879
2.593955,0.6301
2.597849,0.621319
2.601755,0.62195
2.605672,0.62584
2.609601,0.620066
2.613542,0.618564
2.617495,0.621771
2.621459,0.6189854
2.625435,0.615831
2.629424,0.615504
2.633424,0.612092
2.637437,0.6067817
2.641461,0.605266
2.645498,0.602094
2.649547,0.595076
2.653609,0.593762
2.657682,0.586101
2.661768,0.581699
2.665867,0.583095
2.669978,0.568683
2.674102,0.542845
2.678238,0.521966
2.682387,0.47368
2.686549,0.4202963
2.690724,0.345552
2.694911,0.285405
2.699112,0.215319
2.703325,0.183586
2.707552,0.1791
2.711791,0.194069
2.716044,0.190547
2.72031,0.224983
2.724589,0.225568
2.728882,0.213236
2.733188,0.207953
2.737508,0.199711
2.741841,0.202535
2.746188,0.194133
2.750549,0.196585
2.754923,0.201852
2.759311,0.199116
2.763713,0.199212
2.768129,0.19602
2.772559,0.193749
2.777003,0.190441
2.781461,0.187365
2.785934,0.184445
2.79042,0.180833
2.794922,0.177719
2.799437,0.175519
2.803967,0.173283
2.808512,0.170151
2.813071,0.167791
2.817645,0.165938
2.822233,0.1636
2.826837,0.161294
2.831455,0.158157
2.836089,0.156107
2.840737,0.154003
2.845401,0.150431
2.85008,0.147992
2.854774,0.146582
2.859484,0.144071
2.864209,0.142359
2.868949,0.140268
2.873705,0.137486
2.878477,0.136764
2.883265,0.134933
2.888068,0.133365
2.892887,0.132034
2.897723,0.1300758
2.902574,0.127664
2.907441,0.126933
2.912325,0.1256098
2.917225,0.124904
2.922142,0.123529
2.927075,0.120974
2.932024,0.120505
2.93699,0.120176
2.941973,0.118785
2.946973,0.1190815
2.951989,0.1159753
2.957023,0.118308
2.962073,0.115234
2.967141,0.115675
2.972226,0.114444
2.977328,0.118086
2.982448,0.116289
2.987586,0.116045
2.99274,0.1179282
2.997913,0.117297
3.003103,0.118681
3.008312,0.118249
3.013538,0.119455
3.018782,0.1204454
3.024044,0.12078
3.029325,0.122244
3.034624,0.125813
3.039942,0.124114
3.045278,0.12716
3.050632,0.125929
3.056006,0.126228
3.061398,0.12743
3.066809,0.129829
3.072239,0.127988
3.077689,0.128678
3.083157,0.129492
3.088645,0.131795
3.094153,0.130883
3.099679,0.131924
3.105226,0.131044
3.110792,0.131685
3.116378,0.132624
3.121985,0.1338475
3.127611,0.134642
3.133257,0.136467
3.138924,0.137747
3.144611,0.139727
3.150319,0.140568
3.156047,0.142534
3.161796,0.143374
3.167566,0.145344
3.173356,0.146578
3.179168,0.14872
3.185001,0.148789
3.190856,0.149404
3.196731,0.1517282
3.202629,0.152052
3.208548,0.152666
3.214488,0.157725
3.220451,0.158678
3.226436,0.159812
3.232443,0.16007
3.238472,0.161624
3.244523,0.164364
3.250598,0.165035
3.256694,0.164616
3.262814,0.153783
3.268956,0.149253
3.275122,0.146599
3.28131,0.148352
3.287522,0.151978
3.293757,0.152633
3.300016,0.1532382
3.306299,0.151814
3.312605,0.149946
3.318936,0.151128
3.32529,0.153797
3.331669,0.157476
3.338072,0.15578
3.344499,0.15692
3.350952,0.158164
3.357429,0.155167
3.363931,0.1554955
3.370458,0.1546779
3.37701,0.155212
3.383588,0.1552
3.390191,0.154892
3.39682,0.155424
3.403475,0.15295
3.410156,0.146965
3.416862,0.142805
3.423596,0.145905
3.430355,0.147396
3.437141,0.152191
3.443954,0.160329
3.450794,0.161319
3.457661,0.1688714
3.464556,0.177974
3.471477,0.185033
3.478426,0.193539
3.485403,0.204882
3.492408,0.222576
3.499441,0.232311
3.506502,0.244399
3.513592,0.256503
3.52071,0.268483
3.527857,0.277832
3.535032,0.291779
3.542237,0.299719
3.549471,0.307478
3.556735,0.3146074
3.564028,0.320344
3.571351,0.327056
3.578704,0.331565
3.586088,0.337676
3.593501,0.34159
3.600946,0.345901
3.608421,0.349466
3.615926,0.354785
3.623463,0.3569489
3.631032,0.359641
3.638632,0.362003
3.646263,0.3646373
3.653927,0.365385
3.661623,0.362275
3.669351,0.356029
3.677111,0.346798
3.684905,0.340173
3.692731,0.338048
3.70059,0.3409028
3.708483,0.343101
3.716409,0.343369
3.72437,0.339195
3.732364,0.332548
3.740392,0.322238
3.748455,0.312488
3.756553,0.301918
3.764685,0.290217
3.772853,0.278316
3.781056,0.26551
3.789294,0.25615
3.797568,0.249797
3.805879,0.248745
3.814225,0.249
3.822609,0.25077
3.831029,0.249893
3.839486,0.245044
3.84798,0.235652
3.856512,0.228217
3.865081,0.220789
3.873689,0.217359
3.882334,0.217382
3.891019,0.214726
3.899742,0.210036
3.908504,0.202152
3.917305,0.195803
3.926146,0.19161
3.935027,0.18911
3.943948,0.194109
3.952909,0.203909
3.961911,0.221046
3.970954,0.248466
3.980038,0.282401
3.989163,0.313249
3.99833,0.342173
4.00754,0.368771
4.016791,0.393163
4.026086,0.415121
4.035423,0.435173
4.044804,0.4526173
4.054228,0.4657988
4.063695,0.475452
4.073207,0.484475
4.082764,0.490999
4.092365,0.497527
4.102012,0.501988
4.111703,0.506689
4.121441,0.511573
4.131224,0.515146
4.141054,0.519283
4.150931,0.523889
4.160854,0.527518
4.170826,0.531731
4.180844,0.53569
4.190911,0.5400076
4.201026,0.551853
4.21119,0.575253
4.221404,0.598046
4.231666,0.615583
4.241979,0.621964
4.252341,0.608914
4.262754,0.5991
4.273219,0.613971
4.283734,0.613345
4.294301,0.617607
4.30492,0.616457
4.315592,0.610281
4.326317,0.606977
4.337095,0.603032
4.347926,0.600726
4.358811,0.6004439
4.369751,0.601507
4.380746,0.602775
4.391796,0.607163
4.402902,0.611384
4.414064,0.6150655
4.425282,0.617946
4.436558,0.621363
4.447891,0.625196
4.459281,0.62732
4.47073,0.629917
4.482238,0.6314
4.493805,0.633627
4.505431,0.63638
4.517118,0.6381829
4.528865,0.640659
4.540674,0.641322
4.552543,0.642506
4.564475,0.643566
4.57647,0.646066
4.588527,0.648766
4.600648,0.6528327
4.612833,0.659531
4.625082,0.665571
4.637397,0.672582
4.649777,0.679217
4.662223,0.685326
4.674735,0.692237
4.687315,0.696888
4.699962,0.702485
4.712678,0.707567
4.725463,0.7114276
4.738316,0.71626
4.75124,0.72062
4.764234,0.723631
4.777299,0.727575
4.790436,0.731113
4.803645,0.735319
4.816927,0.735894
4.830283,0.739308
4.843712,0.742611
4.857216,0.744475
4.870795,0.74679
4.884451,0.749464
4.898182,0.752579
4.911991,0.753777
4.925878,0.756574
4.939844,0.759309
4.953888,0.762173
4.968013,0.7621
4.982218,0.764182
4.996504,0.765386
5.010872,0.765248
5.025323,0.768864
5.039857,0.766872
5.054475,0.767732
5.069179,0.7708494
5.083967,0.777447
5.098842,0.778042
5.113804,0.7804484
5.128854,0.781978
5.143992,0.78697
5.15922,0.783058
5.174538,0.784393
5.189947,0.784683
5.205448,0.788119
5.221041,0.787176
5.236728,0.789571
5.25251,0.78806
5.268386,0.789769
5.284358,0.7910025
5.300428,0.790995
5.316595,0.790896
5.33286,0.789782
5.349226,0.802613
5.365692,0.785729
5.382259,0.7857483
5.398928,0.785849
5.415701,0.796716
5.432579,0.7863126
5.449561,0.789769
5.46665,0.805043
5.483846,0.801857
5.50115,0.799658
5.518564,0.802183
5.536087,0.790658
5.553723,0.796864
5.57147,0.764083
5.589332,0.796881
5.607307,0.817173
5.625399,0.831447
5.643607,0.841272
5.661934,0.830558
5.680379,0.841701
5.698945,0.837518
5.717633,0.855884
5.736443,0.850052
5.755377,0.846134
5.774436,0.857449
5.793621,0.854023
5.812934,0.86668
5.832376,0.866273
5.851948,0.866203
5.871652,0.877823
5.891488,0.8841
5.911459,0.868783
5.931565,0.891547
5.951809,0.872123
5.97219,0.885591
5.992711,0.889945
6.013374,0.89613
6.034179,0.890336
6.055129,0.899354
6.076224,0.907341
6.097466,0.901031
6.118857,0.909723
6.140398,0.91059
6.162091,0.914242
6.183938,0.926791
6.20594,0.914939
6.228099,0.91428
6.250416,0.914801
6.272893,0.917209
6.295533,0.9179582
6.318336,0.9187057
6.341304,0.937487
6.36444,0.933086
6.387745,0.9260129
6.411221,0.962816
6.434869,0.936833
6.458693,0.935886
6.482693,0.95853
6.506872,0.938914
6.531231,0.938329
6.555774,0.948759
6.580501,0.953056
6.605415,0.948268
6.630518,0.97085
6.655812,0.948368
6.6813,0.954755
6.706983,0.962832
6.732864,0.953135
6.758945,0.956593
6.785229,0.969391
6.811718,0.960816
6.838413,0.959169
6.865319,0.971099
6.892437,0.967531
6.919769,0.965289
6.947319,0.9728858
6.975089,0.96817
7.003081,0.969561
7.031298,0.975176
7.059743,0.971437
7.088419,0.972319
7.117329,0.975925
7.146475,0.980496
7.17586,0.979599
7.205487,0.983419
7.23536,0.983149
7.265481,0.986644
7.295854,0.985166
7.326481,0.988771
7.357366,0.987141
7.388512,0.988421
7.419922,0.989177
7.451601,0.992418
7.48355,0.991362
7.515774,0.992505
7.548277,0.993881
7.581061,0.9955833
7.614131,0.996399
7.647491,0.996883
7.681143,0.997272
7.715093,0.998795
7.749343,0.0100028
7.783899,0.999944
7.818764,0.0100069
7.853942,0.0100189
7.889437,0.0100277
7.925254,0.0100388
7.961398,0.0100461
7.997872,0.0100568
8.034682,0.0100691
8.071832,0.0100821
8.109326,0.0100924
8.147169,0.010101
8.185368,0.0101075
8.223925,0.0101181
8.262847,0.0101248
8.302139,0.0101326
8.341805,0.0101374
8.381852,0.010148
8.422285,0.0101524
8.463109,0.0101617
8.504331,0.0101754
8.545955,0.010185
8.587989,0.0101927
8.630437,0.0101995
8.673307,0.0102091
8.716604,0.0102161
8.760335,0.0102204
8.804507,0.010231
8.849125,0.0102357
8.894198,0.0102448
8.939732,0.01025881
8.985733,0.010266
9.03221,0.0102727
9.07917,0.0102799
9.12662,0.0102833
9.174568,0.0102808
9.223022,0.0102863
9.27199,0.0102814
9.32148,0.0102836
9.3715,0.0102828
9.42206,0.0102868
9.473167,0.0102875
9.524832,0.0102843
9.577062,0.0102872
9.629868,0.010291
9.683259,0.0102902
9.737244,0.0102974
9.791834,0.0102995
9.847039,0.0103036
9.902869,0.0103084
9.959336,0.0103087
10.0164,0.0103135
10.0742,0.0103095
10.1327,0.0103095
10.1918,0.0103095
10.2516,0.0103084
10.3121,0.0103087
10.37336,0.0103105
10.4353,0.0103095
10.498,0.0103128
10.5615,0.0103116
10.6258,0.0103097
10.69079,0.010312
10.7566,0.0103124
10.8233,0.0103145
10.8907,0.0103091
10.9591,0.0103083
11.02824,0.0103104
11.0983,0.0103191
11.1693,0.0103315
11.2411,0.0103243
11.3139,0.0103241
11.3877,0.0103236
11.46238,0.0103306
11.5381,0.0103265
11.6148,0.0103104
11.6925,0.0103002
11.77129,0.0103034
11.8511,0.0102871
11.9321,0.0102837
12.0141,0.0102791
12.0973,0.0102823
12.1816,0.010285
12.26716,0.0102872
12.3539,0.0102861
12.4419,0.0102876
12.5311,0.0102915
12.6216,0.0102929
12.7134,0.0102955
12.8066,0.0102984
12.9012,0.0102927
12.9971,0.0102927
13.09451,0.0102934
13.1934,0.0102952
13.29374,0.0102909
13.3956,0.0102911
13.4991,0.0102795
13.6042,0.0102788
13.7109,0.0102776
13.8194,0.0102683
13.9295,0.0102679
14.0414,0.010264
14.1552,0.0102478
14.2707,0.0102247
14.3882,0.0102172
14.5077,0.0101885
14.6291,0.0101466
14.7526,0.010107
14.8782,0.0100826
15.00592,0.997162
15.1359,0.9920789
15.2681,0.97334
15.4026,0.954842
15.5396,0.919703
15.679,0.867407
15.8209,0.803318
15.9654,0.730582