File: csv_library/FTIR_CLAY_04.csv
Database of Origin,University of Winnipeg Spectrophotometer Facility
Sample Description,See Master Clays in HOSERLab database
Date Added,2016-12-11 20:56:55.1529

Data ID,FTIR_CLAY_04
Sample ID,CRO101
Mineral Name,Cronstedtite
Grain Size,<45 m
Viewing Geometry,35/0
Resolution,11-72 nm
Material Class,Phyllosilicate

Wavelength
2001.142,0.163281
2003.474,0.1634829
2005.812,0.163292
2008.155,0.16385
2010.504,0.163767
2012.858,0.164118
2015.217,0.164434
2017.582,0.164426
2019.952,0.16461
2022.328,0.1646751
2024.709,0.164469
2027.096,0.164633
2029.488,0.164809
2031.886,0.164864
2034.289,0.1654421
2036.698,0.165582
2039.113,0.165845
2041.533,0.166023
2043.959,0.166478
2046.391,0.1664643
2048.828,0.1668046
2051.271,0.166725
2053.72,0.1668011
2056.175,0.167271
2058.635,0.167507
2061.101,0.167503
2063.573,0.167349
2066.051,0.16721
2068.534,0.167319
2071.024,0.16789
2073.519,0.16762
2076.02,0.168024
2078.528,0.168531
2081.041,0.1682238
2083.56,0.168316
2086.085,0.168643
2088.617,0.16908
2091.154,0.169254
2093.697,0.169141
2096.247,0.169202
2098.803,0.1698366
2101.364,0.169736
2103.932,0.1699781
2106.506,0.169873
2109.087,0.169283
2111.673,0.169947
2114.266,0.1700043
2116.865,0.169949
2119.471,0.170184
2122.082,0.170662
2124.7,0.170883
2127.325,0.171334
2129.956,0.1714
2132.593,0.171403
2135.237,0.171679
2137.887,0.171196
2140.544,0.171591
2143.207,0.17142
2145.876,0.17149
2148.553,0.171924
2151.235,0.171861
2153.925,0.1721
2156.621,0.172036
2159.324,0.171834
2162.033,0.172255
2164.749,0.172639
2167.472,0.172747
2170.202,0.172953
2172.938,0.173188
2175.682,0.173087
2178.432,0.173343
2181.189,0.173741
2183.952,0.173484
2186.723,0.173734
2189.501,0.173711
2192.285,0.173923
2195.077,0.173787
2197.876,0.174416
2200.682,0.174217
2203.494,0.174198
2206.314,0.174225
2209.141,0.174446
2211.975,0.174421
2214.817,0.174253
2217.665,0.1742807
2220.521,0.174872
2223.384,0.174833
2226.254,0.174422
2229.132,0.174427
2232.017,0.174583
2234.91,0.174494
2237.809,0.174521
2240.717,0.174824
2243.631,0.175071
2246.554,0.174856
2249.483,0.175122
2252.421,0.175167
2255.365,0.1751809
2258.318,0.175266
2261.278,0.17501
2264.246,0.1750119
2267.221,0.174858
2270.204,0.174781
2273.195,0.174596
2276.194,0.174919
2279.201,0.174581
2282.215,0.1746884
2285.237,0.174595
2288.268,0.174386
2291.306,0.174228
2294.352,0.174141
2297.406,0.174377
2300.468,0.17399
2303.539,0.173528
2306.617,0.1729087
2309.703,0.172177
2312.798,0.17183
2315.901,0.171088
2319.012,0.170223
2322.131,0.170033
2325.259,0.169748
2328.395,0.1704
2331.54,0.171145
2334.692,0.17146
2337.854,0.171946
2341.023,0.172233
2344.201,0.172728
2347.388,0.172477
2350.583,0.17244
2353.787,0.172374
2357.0,0.1725634
2360.221,0.17206
2363.451,0.172098
2366.69,0.171764
2369.937,0.171591
2373.194,0.17158
2376.459,0.171956
2379.733,0.172198
2383.016,0.1728265
2386.308,0.172712
2389.609,0.172967
2392.919,0.1732375
2396.238,0.173631
2399.566,0.173562
2402.903,0.173719
2406.25,0.173659
2409.606,0.173783
2412.971,0.173792
2416.345,0.173914
2419.729,0.174071
2423.122,0.174174
2426.524,0.174267
2429.936,0.17449
2433.358,0.1748412
2436.789,0.174923
2440.229,0.175231
2443.679,0.174986
2447.139,0.175338
2450.609,0.175295
2454.088,0.175163
2457.577,0.175235
2461.076,0.174829
2464.585,0.174971
2468.104,0.1750479
2471.632,0.174838
2475.171,0.174822
2478.72,0.175189
2482.278,0.1750379
2485.847,0.174651
2489.427,0.174614
2493.016,0.17465
2496.615,0.174549
2500.225,0.174329
2503.845,0.17467
2507.476,0.174615
2511.117,0.174521
2514.769,0.174488
2518.431,0.1746091
2522.103,0.174748
2525.787,0.174604
2529.48,0.174956
2533.185,0.175566
2536.9,0.175035
2540.627,0.17479
2544.364,0.175662
2548.112,0.175721
2551.87,0.176634
2555.64,0.174478
2559.421,0.1776571
2563.213,0.18223
2567.016,0.176672
2570.831,0.178199
2574.656,0.179891
2578.493,0.177444
2582.342,0.181089
2586.201,0.180596
2590.072,0.177865
2593.955,0.188589
2597.849,0.1779994
2601.755,0.178811
2605.672,0.18346
2609.601,0.177816
2613.542,0.176439
2617.495,0.182508
2621.459,0.178362
2625.435,0.176814
2629.424,0.1816895
2633.424,0.178041
2637.437,0.173595
2641.461,0.173922
2645.498,0.175474
2649.547,0.173409
2653.609,0.176639
2657.682,0.174914
2661.768,0.177116
2665.867,0.187897
2669.978,0.188474
2674.102,0.1791008
2678.238,0.185556
2682.387,0.174743
2686.549,0.175925
2690.724,0.173078
2694.911,0.182563
2699.112,0.175154
2703.325,0.177054
2707.552,0.180428
2711.791,0.190355
2716.044,0.174832
2720.31,0.1898244
2724.589,0.178951
2728.882,0.154481
2733.188,0.145004
2737.508,0.138466
2741.841,0.133281
2746.188,0.115072
2750.549,0.108818
2754.923,0.106684
2759.311,0.09740014
2763.713,0.09304094
2768.129,0.08704617
2772.559,0.08086545
2777.003,0.07536851
2781.461,0.07192899
2785.934,0.0687198
2790.42,0.06588114
2794.922,0.06290823
2799.437,0.06135827
2803.967,0.06090145
2808.512,0.05842236
2813.071,0.05721896
2817.645,0.05602163
2822.233,0.05485273
2826.837,0.05398055
2831.455,0.05257065
2836.089,0.0511386
2840.737,0.04999536
2845.401,0.04885495
2850.08,0.04839919
2854.774,0.04734773
2859.484,0.04691104
2864.209,0.04657105
2868.949,0.04573512
2873.705,0.04485207
2878.477,0.04456647
2883.265,0.04430891
2888.068,0.04397942
2892.887,0.04386575
2897.723,0.042914
2902.574,0.04222791
2907.441,0.04201173
2912.325,0.04154879
2917.225,0.04228084
2922.142,0.04177196
2927.075,0.04028129
2932.024,0.03998316
2936.99,0.03985594
2941.973,0.03912874
2946.973,0.04050307
2951.989,0.03915352
2957.023,0.03933323
2962.073,0.03714135
2967.141,0.03700684
2972.226,0.03745157
2977.328,0.03881631
2982.448,0.03714331
2987.586,0.03691298
2992.74,0.03750332
2997.913,0.0365683
3003.103,0.03742509
3008.312,0.0361975
3013.538,0.03680311
3018.782,0.03675989
3024.044,0.03655386
3029.325,0.03785455
3034.624,0.03919472
3039.942,0.03724155
3045.278,0.03832061
3050.632,0.03737611
3056.006,0.03729014
3061.398,0.03801487
3066.809,0.03881543
3072.239,0.03739205
3077.689,0.03807104
3083.157,0.0385647
3088.645,0.03955782
3094.153,0.03943571
3099.679,0.04079709
3105.226,0.04051245
3110.792,0.04021262
3116.378,0.04069564
3121.985,0.0410395
3127.611,0.04147975
3133.257,0.04184249
3138.924,0.04230855
3144.611,0.04291941
3150.319,0.04369728
3156.047,0.04427471
3161.796,0.04484998
3167.566,0.04571149
3173.356,0.0459737
3179.168,0.04801355
3185.001,0.04845274
3190.856,0.0481483
3196.731,0.04983135
3202.629,0.04970188
3208.548,0.05018787
3214.488,0.05399921
3220.451,0.05426399
3226.436,0.05330919
3232.443,0.05330285
3238.472,0.05418637
3244.523,0.05564137
3250.598,0.0572703
3256.694,0.05988986
3262.814,0.05799123
3268.956,0.05914421
3275.122,0.05929419
3281.31,0.06021342
3287.522,0.06158227
3293.757,0.06290538
3300.016,0.06372782
3306.299,0.06431594
3312.605,0.06428913
3318.936,0.06520679
3325.29,0.06745861
3331.669,0.06955435
3338.072,0.06736156
3344.499,0.06831274
3350.952,0.07012361
3357.429,0.06975736
3363.931,0.0712229
3370.458,0.07201962
3377.01,0.07171797
3383.588,0.07245627
3390.191,0.07330219
3396.82,0.07533099
3403.475,0.07722205
3410.156,0.07792668
3416.862,0.07730315
3423.596,0.07974002
3430.355,0.08021993
3437.141,0.0823866
3443.954,0.08601653
3450.794,0.08428429
3457.661,0.08506711
3464.556,0.08664063
3471.477,0.08690757
3478.426,0.08793241
3485.403,0.08878503
3492.408,0.09208436
3499.441,0.09075122
3506.502,0.09248736
3513.592,0.09340895
3520.71,0.09488092
3527.857,0.09649228
3535.032,0.09946939
3542.237,0.09904737
3549.471,0.09970599
3556.735,0.101037
3564.028,0.102139
3571.351,0.104209
3578.704,0.104761
3586.088,0.107034
3593.501,0.107827
3600.946,0.108806
3608.421,0.109207
3615.926,0.111504
3623.463,0.112304
3631.032,0.1131145
3638.632,0.1141954
3646.263,0.115844
3653.927,0.117637
3661.623,0.118187
3669.351,0.119668
3677.111,0.121236
3684.905,0.123385
3692.731,0.124124
3700.59,0.125509
3708.483,0.12683
3716.409,0.128259
3724.37,0.129716
3732.364,0.131248
3740.392,0.133039
3748.455,0.135639
3756.553,0.136692
3764.685,0.137996
3772.853,0.1400141
3781.056,0.141676
3789.294,0.143593
3797.568,0.145386
3805.879,0.147189
3814.225,0.148927
3822.609,0.150832
3831.029,0.15253
3839.486,0.154647
3847.98,0.156131
3856.512,0.158204
3865.081,0.160231
3873.689,0.162071
3882.334,0.163648
3891.019,0.165774
3899.742,0.168
3908.504,0.170109
3917.305,0.172178
3926.146,0.174286
3935.027,0.1766177
3943.948,0.1788688
3952.909,0.181297
3961.911,0.183993
3970.954,0.186685
3980.038,0.18946
3989.163,0.191812
3998.33,0.193802
4007.54,0.195864
4016.791,0.198377
4026.086,0.2003
4035.423,0.202509
4044.804,0.2051785
4054.228,0.20798
4063.695,0.210743
4073.207,0.213958
4082.764,0.2170201
4092.365,0.220855
4102.012,0.223811
4111.703,0.227517
4121.441,0.231176
4131.224,0.234883
4141.054,0.238638
4150.931,0.242437
4160.854,0.246758
4170.826,0.250716
4180.844,0.254568
4190.911,0.260372
4201.026,0.273728
4211.19,0.30233
4221.404,0.339055
4231.666,0.369299
4241.979,0.377716
4252.341,0.350061
4262.754,0.341329
4273.219,0.369725
4283.734,0.371668
4294.301,0.372779
4304.92,0.367938
4315.592,0.359312
4326.317,0.35036
4337.095,0.3444964
4347.926,0.342394
4358.811,0.342767
4369.751,0.345017
4380.746,0.34831
4391.796,0.353616
4402.902,0.35893
4414.064,0.364076
4425.282,0.368937
4436.558,0.373397
4447.891,0.377843
4459.281,0.381972
4470.73,0.386008
4482.238,0.3895495
4493.805,0.393308
4505.431,0.397011
4517.118,0.400497
4528.865,0.404694
4540.674,0.409125
4552.543,0.412196
4564.475,0.416261
4576.47,0.420817
4588.527,0.424957
4600.648,0.428771
4612.833,0.4327129
4625.082,0.437026
4637.397,0.441274
4649.777,0.445153
4662.223,0.449472
4674.735,0.45377
4687.315,0.458265
4699.962,0.462326
4712.678,0.46647
4725.463,0.470619
4738.316,0.474344
4751.24,0.479192
4764.234,0.482918
4777.299,0.488201
4790.436,0.492383
4803.645,0.494504
4816.927,0.498085
4830.283,0.501994
4843.712,0.507399
4857.216,0.50964
4870.795,0.513066
4884.451,0.516823
4898.182,0.521725
4911.991,0.523846
4925.878,0.526945
4939.844,0.530507
4953.888,0.536731
4968.013,0.5378408
4982.218,0.540599
4996.504,0.543861
5010.872,0.548513
5025.323,0.555561
5039.857,0.553301
5054.475,0.556328
5069.179,0.560018
5083.967,0.568027
5098.842,0.567206
5113.804,0.570855
5128.854,0.5735515
5143.992,0.585841
5159.22,0.581649
5174.538,0.58348
5189.947,0.588152
5205.448,0.6006065
5221.041,0.59855
5236.728,0.60094
5252.51,0.599985
5268.386,0.604793
5284.358,0.61302
5300.428,0.6145006
5316.595,0.613707
5332.86,0.617151
5349.226,0.643483
5365.692,0.627678
5382.259,0.628698
5398.928,0.6318156
5415.701,0.658219
5432.579,0.653497
5449.561,0.656947
5466.65,0.690397
5483.846,0.691577
5501.15,0.699356
5518.564,0.741349
5536.087,0.798276
5553.723,0.931494
5571.47,0.622122
5589.332,0.448504
5607.307,0.492477
5625.399,0.530075
5643.607,0.56701
5661.934,0.572516
5680.379,0.589757
5698.945,0.596552
5717.633,0.616241
5736.443,0.620421
5755.377,0.630537
5774.436,0.637579
5793.621,0.625516
5812.934,0.649986
5832.376,0.653823
5851.948,0.650987
5871.652,0.676483
5891.488,0.682913
5911.459,0.660829
5931.565,0.692712
5951.809,0.676711
5972.19,0.687988
5992.711,0.687056
6013.374,0.682366
6034.179,0.695191
6055.129,0.713945
6076.224,0.703451
6097.466,0.698784
6118.857,0.706588
6140.398,0.701901
6162.091,0.708889
6183.938,0.717538
6205.94,0.707973
6228.099,0.711279
6250.416,0.713777
6272.893,0.718314
6295.533,0.720076
6318.336,0.723762
6341.304,0.744172
6364.44,0.745199
6387.745,0.743789
6411.221,0.787618
6434.869,0.756234
6458.693,0.757928
6482.693,0.794894
6506.872,0.772531
6531.231,0.769375
6555.774,0.788694
6580.501,0.793906
6605.415,0.783327
6630.518,0.810324
6655.812,0.778625
6681.3,0.784964
6706.983,0.7939119
6732.864,0.778188
6758.945,0.784869
6785.229,0.802472
6811.718,0.788251
6838.413,0.795585
6865.319,0.8077741
6892.437,0.791453
6919.769,0.787331
6947.319,0.801656
6975.089,0.7982482
7003.081,0.79857
7031.298,0.811638
7059.743,0.804422
7088.419,0.802525
7117.329,0.808107
7146.475,0.819386
7175.86,0.815445
7205.487,0.8187536
7235.36,0.816057
7265.481,0.824876
7295.854,0.822679
7326.481,0.830114
7357.366,0.826409
7388.512,0.826968
7419.922,0.828754
7451.601,0.837189
7483.55,0.834651
7515.774,0.834898
7548.277,0.837695
7581.061,0.841593
7614.131,0.842216
7647.491,0.843148
7681.143,0.844664
7715.093,0.846182
7749.343,0.847996
7783.899,0.848753
7818.764,0.849821
7853.942,0.851799
7889.437,0.853153
7925.254,0.8552059
7961.398,0.856283
7997.872,0.857669
8034.682,0.859024
8071.832,0.860034
8109.326,0.860941
8147.169,0.861501
8185.368,0.861998
8223.925,0.862156
8262.847,0.86229
8302.139,0.862911
8341.805,0.863531
8381.852,0.864592
8422.285,0.865706
8463.109,0.866136
8504.331,0.866692
8545.955,0.867252
8587.989,0.867832
8630.437,0.868798
8673.307,0.869474
8716.604,0.870163
8760.335,0.870547
8804.507,0.87139
8849.125,0.871965
8894.198,0.872859
8939.732,0.873377
8985.733,0.873673
9032.21,0.874344
9079.17,0.874728
9126.62,0.8749173
9174.568,0.874863
9223.022,0.87482
9271.99,0.875017
9321.48,0.87524
9371.5,0.875305
9422.06,0.875627
9473.167,0.876587
9524.832,0.8775362
9577.062,0.878681
9629.868,0.87983
9683.259,0.880818
9737.244,0.882166
9791.834,0.883474
9847.039,0.884846
9902.869,0.886058
9959.336,0.887014
10016.449,0.888098
10074.221,0.889164
10132.662,0.8900375
10191.784,0.8913104
10251.6,0.892141
10312.121,0.893112
10373.36,0.894121
10435.331,0.895054
10498.045,0.895746
10561.517,0.896388
10625.761,0.896802
10690.79,0.897233
10756.619,0.8969271
10823.264,0.896488
10890.738,0.895938
10959.058,0.895293
11028.24,0.894506
11098.301,0.893992
11169.256,0.89378
11241.124,0.893787
11313.921,0.8941008
11387.667,0.894617
11462.38,0.895015
11538.079,0.895614
11614.783,0.8957066
11692.513,0.896086
11771.29,0.896385
11851.134,0.896599
11932.068,0.89685
12014.114,0.897225
12097.296,0.89663
12181.636,0.895686
12267.16,0.89639
12353.892,0.897087
12441.859,0.897041
12531.086,0.897179
12621.601,0.897591
12713.432,0.897422
12806.608,0.897739
12901.159,0.898092
12997.116,0.897791
13094.51,0.897842
13193.373,0.897965
13293.74,0.897588
13395.644,0.897726
13499.121,0.898097
13604.208,0.897618
13710.943,0.898037
13819.365,0.897372
13929.515,0.895744
14041.433,0.894113
14155.163,0.891775
14270.749,0.888587
14388.237,0.883487
14507.674,0.878302
14629.109,0.86962
14752.594,0.8556448
14878.179,0.8411904
15005.92,0.819447
15135.871,0.783557
15268.092,0.73191
15402.642,0.664291
15539.583,0.582917
15678.979,0.493248
15820.897,0.414017
15965.407,0.34261