File: csv_library/FTIR_CARB_39_4.csv
Database of Origin,University of Winnipeg Spectrophotometer Facility
Sample Description,Carbonates and Oxolates -  D&P Spectra Reflectance spectra
Other Information,in air no window
Date Added,2018-08-06 21:06:09.562808

Data ID,FTIR_CARB_39_4
Sample ID,CRB114
Mineral Name,Magnesite
Locality,Currant Creek/ Nevada/ USA
Grain Size,<45 um
Viewing Geometry,35/0
Resolution,~3 cm-1
Formula,Mg(CO3)
Composition,Magnesite plus other stuff- probably huntite; some broad and low angle peaks.

Wavelength
2.001142,0.352532
2.003474,0.3541675
2.005812,0.35504
2.008155,0.356138
2.010504,0.357209
2.012858,0.358827
2.015217,0.359898
2.017582,0.361217
2.019952,0.362248
2.022328,0.3632914
2.024709,0.3642402
2.027096,0.364703
2.029488,0.365526
2.031886,0.366287
2.034289,0.367089
2.036698,0.368186
2.039113,0.370184
2.041533,0.37054
2.043959,0.3715292
2.046391,0.371593
2.048828,0.373592
2.051271,0.374498
2.05372,0.374131
2.056175,0.375372
2.058635,0.375915
2.061101,0.375893
2.063573,0.3775275
2.066051,0.377773
2.068534,0.377424
2.071024,0.3779245
2.073519,0.377321
2.07602,0.377061
2.078528,0.3761712
2.081041,0.376134
2.08356,0.375747
2.086085,0.375366
2.088617,0.375025
2.091154,0.374751
2.093697,0.375733
2.096247,0.376774
2.098803,0.378076
2.101364,0.379614
2.103932,0.381411
2.106506,0.383243
2.109087,0.3844972
2.111673,0.384805
2.114266,0.3844119
2.116865,0.384166
2.119471,0.383825
2.122082,0.383451
2.1247,0.384286
2.127325,0.384149
2.129956,0.385457
2.132593,0.386334
2.135237,0.387386
2.137887,0.386782
2.140544,0.388991
2.143207,0.390045
2.145876,0.390869
2.148553,0.39113
2.151235,0.391667
2.153925,0.39189
2.156621,0.391593
2.159324,0.391636
2.162033,0.391985
2.164749,0.391785
2.167472,0.391986
2.170202,0.391943
2.172938,0.391083
2.175682,0.390393
2.178432,0.390121
2.181189,0.390182
2.183952,0.389348
2.186723,0.389418
2.189501,0.38976
2.192285,0.389282
2.195077,0.388183
2.197876,0.388375
2.200682,0.3878842
2.203494,0.387449
2.206314,0.38602
2.209141,0.386238
2.211975,0.385451
2.214817,0.384179
2.217665,0.383703
2.220521,0.382051
2.223384,0.380075
2.226254,0.378387
2.229132,0.377109
2.232017,0.374859
2.23491,0.3725298
2.237809,0.370996
2.240717,0.368918
2.243631,0.367541
2.246554,0.365242
2.249483,0.363339
2.252421,0.362516
2.255365,0.360621
2.258318,0.3584628
2.261278,0.356029
2.264246,0.353002
2.267221,0.351097
2.270204,0.350015
2.273195,0.34847
2.276194,0.3468693
2.279201,0.345016
2.282215,0.343974
2.285237,0.340695
2.288268,0.337258
2.291306,0.334656
2.294352,0.332883
2.297406,0.330298
2.300468,0.326606
2.303539,0.321953
2.306617,0.316108
2.309703,0.309391
2.312798,0.301815
2.315901,0.296267
2.319012,0.291588
2.322131,0.291001
2.325259,0.294586
2.328395,0.299122
2.33154,0.300266
2.334692,0.298709
2.337854,0.299951
2.341023,0.306792
2.344201,0.317932
2.347388,0.327396
2.350583,0.332668
2.353787,0.3354453
2.357,0.336967
2.360221,0.336933
2.363451,0.3362407
2.36669,0.334251
2.369937,0.330612
2.373194,0.326369
2.376459,0.322285
2.379733,0.319867
2.383016,0.318451
2.386308,0.3188779
2.389609,0.319154
2.392919,0.317925
2.396238,0.316376
2.399566,0.315006
2.402903,0.316126
2.40625,0.316831
2.409606,0.316495
2.412971,0.315773
2.416345,0.313719
2.419729,0.309726
2.423122,0.306997
2.426524,0.304783
2.429936,0.303582
2.433358,0.303411
2.436789,0.303119
2.440229,0.302632
2.443679,0.3013546
2.447139,0.300577
2.450609,0.299472
2.454088,0.2989702
2.457577,0.298798
2.461076,0.29832
2.464585,0.296473
2.468104,0.294573
2.471632,0.292601
2.475171,0.289923
2.47872,0.288005
2.482278,0.28569
2.485847,0.283726
2.489427,0.281368
2.493016,0.278499
2.496615,0.276274
2.500225,0.274837
2.503845,0.274284
2.507476,0.274044
2.511117,0.274172
2.514769,0.274756
2.518431,0.275823
2.522103,0.276642
2.525787,0.277905
2.52948,0.279206
2.533185,0.280385
2.5369,0.281066
2.540627,0.281291
2.544364,0.281047
2.548112,0.280335
2.55187,0.280585
2.55564,0.278574
2.559421,0.280395
2.563213,0.28313
2.567016,0.280081
2.570831,0.281227
2.574656,0.2836635
2.578493,0.282275
2.582342,0.285048
2.586201,0.285469
2.590072,0.284124
2.593955,0.291629
2.597849,0.283779
2.601755,0.284582
2.605672,0.287774
2.609601,0.282652
2.613542,0.281564
2.617495,0.284694
2.621459,0.280092
2.625435,0.277654
2.629424,0.278858
2.633424,0.2738217
2.637437,0.267893
2.641461,0.264852
2.645498,0.2614077
2.649547,0.254843
2.653609,0.251315
2.657682,0.245325
2.661768,0.240962
2.665867,0.241827
2.669978,0.231689
2.674102,0.208482
2.678238,0.188005
2.682387,0.151199
2.686549,0.121982
2.690724,0.08847846
2.694911,0.07281182
2.699112,0.05279937
2.703325,0.04811829
2.707552,0.04794038
2.711791,0.05283452
2.716044,0.04213485
2.72031,0.05411071
2.724589,0.05222774
2.728882,0.04179186
2.733188,0.03907038
2.737508,0.03737672
2.741841,0.0387384
2.746188,0.03147899
2.750549,0.03251172
2.754923,0.03483718
2.759311,0.03269026
2.763713,0.03368005
2.768129,0.03214334
2.772559,0.0314331
2.777003,0.03026669
2.781461,0.02951086
2.785934,0.02925454
2.79042,0.0281957
2.794922,0.02650635
2.799437,0.02627512
2.803967,0.02725031
2.808512,0.02536922
2.813071,0.02439324
2.817645,0.02393069
2.822233,0.0233249
2.826837,0.02316789
2.831455,0.02211696
2.836089,0.02144324
2.840737,0.02109679
2.845401,0.02049611
2.85008,0.01906545
2.854774,0.01910523
2.859484,0.01892292
2.864209,0.01818189
2.868949,0.01803214
2.873705,0.0175858
2.878477,0.01698363
2.883265,0.0165444
2.888068,0.01672929
2.892887,0.01639119
2.897723,0.01598714
2.902574,0.01591395
2.907441,0.01571368
2.912325,0.01593368
2.917225,0.01599777
2.922142,0.01581376
2.927075,0.01552322
2.932024,0.01504122
2.93699,0.01500834
2.941973,0.01554483
2.946973,0.01617586
2.951989,0.01588225
2.957023,0.01623577
2.962073,0.01521914
2.967141,0.01515909
2.972226,0.01569754
2.977328,0.01631822
2.982448,0.01525008
2.987586,0.01501757
2.99274,0.01594584
2.997913,0.01586377
3.003103,0.01616009
3.008312,0.01561077
3.013538,0.01580566
3.018782,0.01595988
3.024044,0.01617942
3.029325,0.01750565
3.034624,0.01851825
3.039942,0.01712726
3.045278,0.0183156
3.050632,0.01719553
3.056006,0.01727095
3.061398,0.0182478
3.066809,0.01923846
3.072239,0.01794539
3.077689,0.0181429
3.083157,0.01849415
3.088645,0.01914671
3.094153,0.0187095
3.099679,0.01964178
3.105226,0.01961772
3.110792,0.01928749
3.116378,0.01945436
3.121985,0.01962458
3.127611,0.01960859
3.133257,0.02027722
3.138924,0.02092798
3.144611,0.02130175
3.150319,0.02188269
3.156047,0.02234146
3.161796,0.02322675
3.167566,0.02398727
3.173356,0.02462725
3.179168,0.02668373
3.185001,0.02759234
3.190856,0.02721234
3.196731,0.02941002
3.202629,0.02927873
3.208548,0.03014531
3.214488,0.03451856
3.220451,0.03517974
3.226436,0.03461637
3.232443,0.03464239
3.238472,0.03598359
3.244523,0.03780469
3.250598,0.03996069
3.256694,0.04264844
3.262814,0.04077425
3.268956,0.04192164
3.275122,0.04245966
3.28131,0.04361764
3.287522,0.04562273
3.293757,0.04793585
3.300016,0.0489747
3.306299,0.05030098
3.312605,0.05059787
3.318936,0.05206757
3.32529,0.05472816
3.331669,0.05683404
3.338072,0.0544331
3.344499,0.05592166
3.350952,0.05828435
3.357429,0.05779614
3.363931,0.05939127
3.370458,0.0598177
3.37701,0.05948341
3.383588,0.06086975
3.390191,0.06282501
3.39682,0.0650366
3.403475,0.06619863
3.410156,0.06619558
3.416862,0.06527505
3.423596,0.06857448
3.430355,0.07076005
3.437141,0.0748619
3.443954,0.07988261
3.450794,0.07901177
3.457661,0.08090862
3.464556,0.08355477
3.471477,0.08511815
3.478426,0.08715143
3.485403,0.09000502
3.492408,0.0951442
3.499441,0.09557327
3.506502,0.09949043
3.513592,0.103977
3.52071,0.108906
3.527857,0.112869
3.535032,0.118594
3.542237,0.1199677
3.549471,0.122411
3.556735,0.125311
3.564028,0.127903
3.571351,0.131158
3.578704,0.1334
3.586088,0.137133
3.593501,0.139541
3.600946,0.141872
3.608421,0.14315
3.615926,0.146651
3.623463,0.148181
3.631032,0.1498513
3.638632,0.15188
3.646263,0.154036
3.653927,0.156188
3.661623,0.1571016
3.669351,0.158725
3.677111,0.160224
3.684905,0.162235
3.692731,0.163241
3.70059,0.165456
3.708483,0.167458
3.716409,0.168833
3.72437,0.169893
3.732364,0.170334
3.740392,0.170562
3.748455,0.170847
3.756553,0.170148
3.764685,0.169225
3.772853,0.168354
3.781056,0.166972
3.789294,0.165765
3.797568,0.165089
3.805879,0.165254
3.814225,0.165006
3.822609,0.164996
3.831029,0.164448
3.839486,0.16317
3.84798,0.1620414
3.856512,0.161278
3.865081,0.160627
3.873689,0.160508
3.882334,0.160167
3.891019,0.159745
3.899742,0.158028
3.908504,0.1556139
3.917305,0.153721
3.926146,0.151402
3.935027,0.148645
3.943948,0.147731
3.952909,0.149128
3.961911,0.154104
3.970954,0.162057
3.980038,0.172157
3.989163,0.181699
3.99833,0.19059
4.00754,0.198029
4.016791,0.205206
4.026086,0.211664
4.035423,0.217745
4.044804,0.222522
4.054228,0.226416
4.063695,0.229176
4.073207,0.231703
4.082764,0.233575
4.092365,0.2350739
4.102012,0.236784
4.111703,0.238073
4.121441,0.239592
4.131224,0.24079
4.141054,0.242462
4.150931,0.244224
4.160854,0.246018
4.170826,0.247706
4.180844,0.248923
4.190911,0.251463
4.201026,0.259307
4.21119,0.275767
4.221404,0.29708
4.231666,0.314383
4.241979,0.320033
4.252341,0.302232
4.262754,0.297182
4.273219,0.31323
4.283734,0.312736
4.294301,0.313181
4.30492,0.310048
4.315592,0.3042644
4.326317,0.298445
4.337095,0.293703
4.347926,0.291242
4.358811,0.290744
4.369751,0.290913
4.380746,0.2918561
4.391796,0.2949357
4.402902,0.297777
4.414064,0.300709
4.425282,0.303537
4.436558,0.306206
4.447891,0.308955
4.459281,0.31208
4.47073,0.314809
4.482238,0.317662
4.493805,0.320613
4.505431,0.323411
4.517118,0.326405
4.528865,0.329302
4.540674,0.332136
4.552543,0.334972
4.564475,0.338005
4.57647,0.341068
4.588527,0.344077
4.600648,0.347512
4.612833,0.351294
4.625082,0.355074
4.637397,0.358513
4.649777,0.362287
4.662223,0.365964
4.674735,0.369859
4.687315,0.373427
4.699962,0.377201
4.712678,0.381019
4.725463,0.3850944
4.738316,0.388557
4.75124,0.392436
4.764234,0.39634
4.777299,0.400907
4.790436,0.40568
4.803645,0.409409
4.816927,0.413582
4.830283,0.417782
4.843712,0.423125
4.857216,0.425401
4.870795,0.428966
4.884451,0.4327103
4.898182,0.437445
4.911991,0.439971
4.925878,0.443299
4.939844,0.447547
4.953888,0.454065
4.968013,0.455374
4.982218,0.458155
4.996504,0.461217
5.010872,0.465934
5.025323,0.472921
5.039857,0.471063
5.054475,0.474547
5.069179,0.47894
5.083967,0.487789
5.098842,0.487491
5.113804,0.491721
5.128854,0.495121
5.143992,0.507423
5.15922,0.503312
5.174538,0.5053055
5.189947,0.509806
5.205448,0.52188
5.221041,0.519311
5.236728,0.521762
5.25251,0.5202254
5.268386,0.524589
5.284358,0.532775
5.300428,0.533332
5.316595,0.531622
5.33286,0.53417
5.349226,0.560743
5.365692,0.543023
5.382259,0.542467
5.398928,0.544399
5.415701,0.5694115
5.432579,0.560109
5.449561,0.557964
5.46665,0.581176
5.483846,0.567059
5.50115,0.552986
5.518564,0.554761
5.536087,0.537706
5.553723,0.526458
5.57147,0.481664
5.589332,0.612587
5.607307,0.627288
5.625399,0.622905
5.643607,0.64299
5.661934,0.619971
5.680379,0.6283
5.698945,0.627192
5.717633,0.649615
5.736443,0.640123
5.755377,0.651682
5.774436,0.65432
5.793621,0.625978
5.812934,0.661609
5.832376,0.6619
5.851948,0.65164
5.871652,0.688599
5.891488,0.6974956
5.911459,0.6568049
5.931565,0.705413
5.951809,0.673831
5.97219,0.688969
5.992711,0.685634
6.013374,0.677832
6.034179,0.69568
6.055129,0.727572
6.076224,0.708094
6.097466,0.698481
6.118857,0.7100692
6.140398,0.702686
6.162091,0.711721
6.183938,0.721946
6.20594,0.704874
6.228099,0.706963
6.250416,0.707389
6.272893,0.7124182
6.295533,0.712686
6.318336,0.717555
6.341304,0.746947
6.36444,0.745757
6.387745,0.741791
6.411221,0.809249
6.434869,0.757832
6.458693,0.758607
6.482693,0.816638
6.506872,0.778151
6.531231,0.770996
6.555774,0.798317
6.580501,0.805259
6.605415,0.787024
6.630518,0.829575
6.655812,0.780207
6.6813,0.787931
6.706983,0.800309
6.732864,0.776652
6.758945,0.7846102
6.785229,0.810239
6.811718,0.788379
6.838413,0.799546
6.865319,0.816727
6.892437,0.79314
6.919769,0.787255
6.947319,0.807882
6.975089,0.803817
7.003081,0.8034022
7.031298,0.821594
7.059743,0.8106601
7.088419,0.806772
7.117329,0.813922
7.146475,0.828918
7.17586,0.821816
7.205487,0.82606
7.23536,0.822104
7.265481,0.833746
7.295854,0.829598
7.326481,0.840772
7.357366,0.834718
7.388512,0.835211
7.419922,0.83753
7.451601,0.848967
7.48355,0.8448136
7.515774,0.845237
7.548277,0.848407
7.581061,0.853621
7.614131,0.854032
7.647491,0.854609
7.681143,0.856581
7.715093,0.858854
7.749343,0.861553
7.783899,0.8624701
7.818764,0.864181
7.853942,0.867235
7.889437,0.86933
7.925254,0.871863
7.961398,0.872567
7.997872,0.874089
8.034682,0.875998
8.071832,0.877583
8.109326,0.879151
8.147169,0.881003
8.185368,0.882296
8.223925,0.883685
8.262847,0.884874
8.302139,0.886212
8.341805,0.887615
8.381852,0.889017
8.422285,0.890667
8.463109,0.8916285
8.504331,0.892535
8.545955,0.893624
8.587989,0.894737
8.630437,0.895601
8.673307,0.896951
8.716604,0.897948
8.760335,0.899276
8.804507,0.900639
8.849125,0.901971
8.894198,0.903294
8.939732,0.904282
8.985733,0.905418
9.03221,0.906155
9.07917,0.906684
9.12662,0.90734
9.174568,0.907281
9.223022,0.906969
9.27199,0.907198
9.32148,0.907713
9.3715,0.908349
9.42206,0.908963
9.473167,0.910154
9.524832,0.911289
9.577062,0.912308
9.629868,0.913088
9.683259,0.9137907
9.737244,0.91478
9.791834,0.915706
9.847039,0.916463
9.902869,0.916912
9.959336,0.917916
10.0164,0.918627
10.0742,0.919575
10.1327,0.920872
10.1918,0.921943
10.2516,0.923006
10.3121,0.923989
10.37336,0.9248
10.4353,0.925724
10.498,0.926381
10.5615,0.92711
10.6258,0.927826
10.69079,0.928792
10.7566,0.929463
10.8233,0.929896
10.8907,0.930117
10.9591,0.930282
11.02824,0.930418
11.0983,0.930799
11.1693,0.930393
11.2411,0.930994
11.3139,0.931544
11.3877,0.931556
11.46238,0.932385
11.5381,0.933353
11.6148,0.934189
11.6925,0.935066
11.77129,0.936298
11.8511,0.937259
11.9321,0.938217
12.0141,0.938757
12.0973,0.93912
12.1816,0.939226
12.26716,0.939477
12.3539,0.939935
12.4419,0.940994
12.5311,0.940902
12.6216,0.940553
12.7134,0.94139
12.8066,0.941727
12.9012,0.942501
12.9971,0.943254
13.09451,0.943798
13.1934,0.944109
13.29374,0.944671
13.3956,0.945012
13.4991,0.945575
13.6042,0.945529
13.7109,0.946412
13.8194,0.947177
13.9295,0.9471881
14.0414,0.947756
14.1552,0.948325
14.2707,0.948806
14.3882,0.9492856
14.5077,0.949191
14.6291,0.948752
14.7526,0.945684
14.8782,0.947147
15.00592,0.942572
15.1359,0.931471
15.2681,0.924452
15.4026,0.908197
15.5396,0.881397
15.679,0.840931
15.8209,0.778288
15.9654,0.704704