File: csv_library/FTIR_CLAY_07.csv
Database of Origin,University of Winnipeg Spectrophotometer Facility
Sample Description,See Master Clays in HOSERLab database
Date Added,2016-12-11 20:56:55.2131

Data ID,FTIR_CLAY_07
Sample ID,HAL001
Mineral Name,Halloysite
Grain Size,<45 m
Viewing Geometry,35/0
Resolution,11-72 nm
Material Class,Phyllosilicate

Wavelength
2001.142,0.4509227
2003.474,0.45226
2005.812,0.453352
2008.155,0.455194
2010.504,0.456499
2012.858,0.457864
2015.217,0.4591493
2017.582,0.4601909
2019.952,0.461418
2022.328,0.462181
2024.709,0.4631796
2027.096,0.464541
2029.488,0.465119
2031.886,0.466469
2034.289,0.467521
2036.698,0.468651
2039.113,0.468901
2041.533,0.4695
2043.959,0.470641
2046.391,0.470787
2048.828,0.471074
2051.271,0.471293
2053.72,0.4707
2056.175,0.470547
2058.635,0.470834
2061.101,0.47033
2063.573,0.47042
2066.051,0.4708282
2068.534,0.470297
2071.024,0.469853
2073.519,0.4691958
2076.02,0.469756
2078.528,0.469334
2081.041,0.4687921
2083.56,0.4684881
2086.085,0.46897
2088.617,0.468531
2091.154,0.468915
2093.697,0.467831
2096.247,0.466313
2098.803,0.464967
2101.364,0.462307
2103.932,0.4603383
2106.506,0.4585588
2109.087,0.456625
2111.673,0.45667
2114.266,0.456891
2116.865,0.456201
2119.471,0.454986
2122.082,0.453632
2124.7,0.451551
2127.325,0.448299
2129.956,0.445071
2132.593,0.442128
2135.237,0.437082
2137.887,0.431059
2140.544,0.4242262
2143.207,0.4161604
2145.876,0.406655
2148.553,0.397545
2151.235,0.388584
2153.925,0.380615
2156.621,0.373915
2159.324,0.368415
2162.033,0.365176
2164.749,0.363493
2167.472,0.362377
2170.202,0.36187
2172.938,0.360957
2175.682,0.36017
2178.432,0.357891
2181.189,0.3540706
2183.952,0.3484244
2186.723,0.341452
2189.501,0.333879
2192.285,0.325322
2195.077,0.314093
2197.876,0.300042
2200.682,0.2834059
2203.494,0.270395
2206.314,0.271068
2209.141,0.289278
2211.975,0.316697
2214.817,0.342023
2217.665,0.361908
2220.521,0.376117
2223.384,0.386083
2226.254,0.392808
2229.132,0.3976306
2232.017,0.401068
2234.91,0.4038277
2237.809,0.405725
2240.717,0.407579
2243.631,0.408429
2246.554,0.408744
2249.483,0.408817
2252.421,0.408285
2255.365,0.408234
2258.318,0.409001
2261.278,0.40799
2264.246,0.407697
2267.221,0.407042
2270.204,0.405421
2273.195,0.40438
2276.194,0.403063
2279.201,0.401032
2282.215,0.398693
2285.237,0.396713
2288.268,0.393751
2291.306,0.390584
2294.352,0.387537
2297.406,0.383528
2300.468,0.378583
2303.539,0.373899
2306.617,0.370328
2309.703,0.366841
2312.798,0.364765
2315.901,0.362887
2319.012,0.360965
2322.131,0.359982
2325.259,0.359019
2328.395,0.359126
2331.54,0.3584292
2334.692,0.357153
2337.854,0.3550723
2341.023,0.351314
2344.201,0.347318
2347.388,0.343519
2350.583,0.34033
2353.787,0.338777
2357.0,0.338584
2360.221,0.338791
2363.451,0.338991
2366.69,0.337077
2369.937,0.333364
2373.194,0.327968
2376.459,0.322846
2379.733,0.318932
2383.016,0.317169
2386.308,0.317376
2389.609,0.318316
2392.919,0.318816
2396.238,0.319339
2399.566,0.319659
2402.903,0.319704
2406.25,0.3178439
2409.606,0.3159093
2412.971,0.313067
2416.345,0.310683
2419.729,0.307612
2423.122,0.304558
2426.524,0.301286
2429.936,0.297761
2433.358,0.2946
2436.789,0.291016
2440.229,0.289034
2443.679,0.287952
2447.139,0.287549
2450.609,0.286321
2454.088,0.285504
2457.577,0.283804
2461.076,0.2817419
2464.585,0.279453
2468.104,0.27727
2471.632,0.274563
2475.171,0.271302
2478.72,0.268372
2482.278,0.2653
2485.847,0.263152
2489.427,0.2622725
2493.016,0.261039
2496.615,0.259961
2500.225,0.258444
2503.845,0.2567932
2507.476,0.255017
2511.117,0.253448
2514.769,0.251752
2518.431,0.249887
2522.103,0.24873
2525.787,0.246812
2529.48,0.24549
2533.185,0.244427
2536.9,0.241853
2540.627,0.2398
2544.364,0.238195
2548.112,0.236813
2551.87,0.236032
2555.64,0.231542
2559.421,0.232377
2563.213,0.23338
2567.016,0.225803
2570.831,0.224682
2574.656,0.224265
2578.493,0.220023
2582.342,0.221201
2586.201,0.218107
2590.072,0.213226
2593.955,0.221644
2597.849,0.208163
2601.755,0.207136
2605.672,0.2091156
2609.601,0.200653
2613.542,0.196678
2617.495,0.199689
2621.459,0.190894
2625.435,0.185456
2629.424,0.185245
2633.424,0.176817
2637.437,0.167455
2641.461,0.162588
2645.498,0.15795
2649.547,0.1499122
2653.609,0.145823
2657.682,0.13678
2661.768,0.130269
2665.867,0.132418
2669.978,0.122924
2674.102,0.102978
2678.238,0.09773236
2682.387,0.07499678
2686.549,0.06590999
2690.724,0.05525424
2694.911,0.06190583
2699.112,0.05419545
2703.325,0.05751125
2707.552,0.06365471
2711.791,0.07590455
2716.044,0.06149373
2720.31,0.07987788
2724.589,0.07173919
2728.882,0.05096156
2733.188,0.0457904
2737.508,0.0420767
2741.841,0.04198046
2746.188,0.02835504
2750.549,0.02609716
2754.923,0.02842164
2759.311,0.02350181
2763.713,0.02509861
2768.129,0.02522224
2772.559,0.02487739
2777.003,0.02375708
2781.461,0.02415513
2785.934,0.02479729
2790.42,0.0242716
2794.922,0.02381068
2799.437,0.02395603
2803.967,0.02522219
2808.512,0.02318586
2813.071,0.02234028
2817.645,0.0224482
2822.233,0.02248155
2826.837,0.02197844
2831.455,0.02178748
2836.089,0.02181752
2840.737,0.02137516
2845.401,0.02102445
2850.08,0.02117635
2854.774,0.02111551
2859.484,0.02087832
2864.209,0.02107758
2868.949,0.02031296
2873.705,0.0204662
2878.477,0.02022623
2883.265,0.01991709
2888.068,0.02002794
2892.887,0.02013555
2897.723,0.01956292
2902.574,0.01970059
2907.441,0.01926927
2912.325,0.01942669
2917.225,0.01973198
2922.142,0.01942976
2927.075,0.01921402
2932.024,0.01937711
2936.99,0.01938873
2941.973,0.0193191
2946.973,0.02039019
2951.989,0.01989655
2957.023,0.01994686
2962.073,0.01928454
2967.141,0.0196596
2972.226,0.02002237
2977.328,0.02081744
2982.448,0.01986246
2987.586,0.02004796
2992.74,0.02088114
2997.913,0.02072322
3003.103,0.02136289
3008.312,0.02093986
3013.538,0.02167091
3018.782,0.02182436
3024.044,0.02177997
3029.325,0.02300795
3034.624,0.02463652
3039.942,0.02308094
3045.278,0.02432483
3050.632,0.02392271
3056.006,0.02424355
3061.398,0.02520724
3066.809,0.02613534
3072.239,0.02549544
3077.689,0.0261631
3083.157,0.02645287
3088.645,0.02749913
3094.153,0.02725264
3099.679,0.02859051
3105.226,0.02862227
3110.792,0.02860544
3116.378,0.02940892
3121.985,0.03000836
3127.611,0.03097453
3133.257,0.03201164
3138.924,0.03253347
3144.611,0.03351259
3150.319,0.03461607
3156.047,0.03592552
3161.796,0.03718638
3167.566,0.03857097
3173.356,0.0398828
3179.168,0.04212068
3185.001,0.04387474
3190.856,0.04485541
3196.731,0.04671979
3202.629,0.04767389
3208.548,0.04943378
3214.488,0.05386463
3220.451,0.05556817
3226.436,0.05572475
3232.443,0.05689437
3238.472,0.05883117
3244.523,0.06121831
3250.598,0.06415648
3256.694,0.06760062
3262.814,0.06771234
3268.956,0.06973313
3275.122,0.07123948
3281.31,0.07358541
3287.522,0.07645292
3293.757,0.07885783
3300.016,0.08135577
3306.299,0.08350071
3312.605,0.0851238
3318.936,0.08772839
3325.29,0.09116439
3331.669,0.0944919
3338.072,0.09421239
3344.499,0.09700806
3350.952,0.100252
3357.429,0.101253
3363.931,0.1036
3370.458,0.105518
3377.01,0.106952
3383.588,0.110174
3390.191,0.113486
3396.82,0.116973
3403.475,0.119767
3410.156,0.121816
3416.862,0.123512
3423.596,0.127978
3430.355,0.131254
3437.141,0.135424
3443.954,0.140887
3450.794,0.141922
3457.661,0.1450678
3464.556,0.148355
3471.477,0.150568
3478.426,0.153353
3485.403,0.156036
3492.408,0.160484
3499.441,0.161572
3506.502,0.164882
3513.592,0.1690966
3520.71,0.173003
3527.857,0.176649
3535.032,0.181562
3542.237,0.183492
3549.471,0.186074
3556.735,0.18948
3564.028,0.191816
3571.351,0.195338
3578.704,0.198881
3586.088,0.203405
3593.501,0.206521
3600.946,0.209825
3608.421,0.2123324
3615.926,0.216118
3623.463,0.218403
3631.032,0.220975
3638.632,0.223782
3646.263,0.226515
3653.927,0.229587
3661.623,0.231386
3669.351,0.233427
3677.111,0.23555
3684.905,0.238236
3692.731,0.240579
3700.59,0.244291
3708.483,0.248203
3716.409,0.2522064
3724.37,0.255433
3732.364,0.258124
3740.392,0.260698
3748.455,0.264482
3756.553,0.267797
3764.685,0.270425
3772.853,0.273458
3781.056,0.276236
3789.294,0.278563
3797.568,0.281173
3805.879,0.283704
3814.225,0.285613
3822.609,0.287886
3831.029,0.2898744
3839.486,0.291909
3847.98,0.293728
3856.512,0.295634
3865.081,0.297737
3873.689,0.2993412
3882.334,0.30102
3891.019,0.302813
3899.742,0.304584
3908.504,0.305739
3917.305,0.307425
3926.146,0.308495
3935.027,0.309561
3943.948,0.311186
3952.909,0.312705
3961.911,0.314119
3970.954,0.3156473
3980.038,0.317346
3989.163,0.318634
3998.33,0.319694
4007.54,0.321168
4016.791,0.32223
4026.086,0.32361
4035.423,0.32474
4044.804,0.326202
4054.228,0.327675
4063.695,0.329087
4073.207,0.330759
4082.764,0.3325213
4092.365,0.3344241
4102.012,0.336608
4111.703,0.338785
4121.441,0.340767
4131.224,0.343268
4141.054,0.345549
4150.931,0.3481064
4160.854,0.350858
4170.826,0.352994
4180.844,0.355527
4190.911,0.359469
4201.026,0.371243
4211.19,0.398526
4221.404,0.432781
4231.666,0.460746
4241.979,0.466826
4252.341,0.436054
4262.754,0.425433
4273.219,0.450883
4283.734,0.451182
4294.301,0.449398
4304.92,0.442822
4315.592,0.43191
4326.317,0.421552
4337.095,0.4141836
4347.926,0.409846
4358.811,0.408493
4369.751,0.408429
4380.746,0.4093799
4391.796,0.412865
4402.902,0.415872
4414.064,0.418575
4425.282,0.421169
4436.558,0.423441
4447.891,0.425352
4459.281,0.427692
4470.73,0.4296067
4482.238,0.4309988
4493.805,0.432779
4505.431,0.434487
4517.118,0.436136
4528.865,0.438242
4540.674,0.440558
4552.543,0.441771
4564.475,0.443882
4576.47,0.446014
4588.527,0.447962
4600.648,0.449524
4612.833,0.451131
4625.082,0.452791
4637.397,0.454775
4649.777,0.456345
4662.223,0.458712
4674.735,0.461206
4687.315,0.464774
4699.962,0.468114
4712.678,0.471503
4725.463,0.475307
4738.316,0.4784116
4751.24,0.4821394
4764.234,0.485728
4777.299,0.490032
4790.436,0.493187
4803.645,0.494346
4816.927,0.496924
4830.283,0.499439
4843.712,0.503478
4857.216,0.504776
4870.795,0.507462
4884.451,0.509985
4898.182,0.513739
4911.991,0.514958
4925.878,0.517456
4939.844,0.520096
4953.888,0.52513
4968.013,0.525213
4982.218,0.526557
4996.504,0.528257
5010.872,0.531287
5025.323,0.536193
5039.857,0.531866
5054.475,0.532571
5069.179,0.534261
5083.967,0.540136
5098.842,0.537434
5113.804,0.539514
5128.854,0.540804
5143.992,0.552031
5159.22,0.546724
5174.538,0.548084
5189.947,0.55267
5205.448,0.565349
5221.041,0.563328
5236.728,0.566203
5252.51,0.565469
5268.386,0.570429
5284.358,0.578887
5300.428,0.579806
5316.595,0.5780062
5332.86,0.580377
5349.226,0.6063053
5365.692,0.588244
5382.259,0.58789
5398.928,0.589934
5415.701,0.616668
5432.579,0.60989
5449.561,0.611901
5466.65,0.6454019
5483.846,0.646227
5501.15,0.65463
5518.564,0.701392
5536.087,0.766215
5553.723,0.917173
5571.47,0.625059
5589.332,0.423184
5607.307,0.448589
5625.399,0.487119
5643.607,0.520809
5661.934,0.527224
5680.379,0.544916
5698.945,0.551132
5717.633,0.5711109
5736.443,0.573245
5755.377,0.584318
5774.436,0.591139
5793.621,0.576737
5812.934,0.604384
5832.376,0.607193
5851.948,0.601878
5871.652,0.63089
5891.488,0.636979
5911.459,0.611146
5931.565,0.646294
5951.809,0.6256085
5972.19,0.6374626
5992.711,0.63626
6013.374,0.629442
6034.179,0.642808
6055.129,0.665003
6076.224,0.651756
6097.466,0.646433
6118.857,0.655759
6140.398,0.649509
6162.091,0.657615
6183.938,0.667569
6205.94,0.65703
6228.099,0.6607403
6250.416,0.662696
6272.893,0.667667
6295.533,0.669352
6318.336,0.673416
6341.304,0.69801
6364.44,0.698403
6387.745,0.697028
6411.221,0.748901
6434.869,0.711264
6458.693,0.712854
6482.693,0.756957
6506.872,0.729734
6531.231,0.7256936
6555.774,0.7486047
6580.501,0.754428
6605.415,0.74181
6630.518,0.773403
6655.812,0.734773
6681.3,0.7415307
6706.983,0.751483
6732.864,0.732399
6758.945,0.7396238
6785.229,0.759794
6811.718,0.74189
6838.413,0.751045
6865.319,0.765245
6892.437,0.745033
6919.769,0.739138
6947.319,0.75645
6975.089,0.751114
7003.081,0.750634
7031.298,0.766075
7059.743,0.756686
7088.419,0.753652
7117.329,0.760191
7146.475,0.773236
7175.86,0.7676333
7205.487,0.770955
7235.36,0.767381
7265.481,0.777692
7295.854,0.774064
7326.481,0.7832
7357.366,0.777936
7388.512,0.778462
7419.922,0.7797923
7451.601,0.789874
7483.55,0.786232
7515.774,0.786122
7548.277,0.788867
7581.061,0.793783
7614.131,0.794361
7647.491,0.795232
7681.143,0.796439
7715.093,0.798481
7749.343,0.800166
7783.899,0.800802
7818.764,0.802026
7853.942,0.804233
7889.437,0.80604
7925.254,0.80853
7961.398,0.809569
7997.872,0.8112413
8034.682,0.813288
8071.832,0.815096
8109.326,0.816642
8147.169,0.817976
8185.368,0.818947
8223.925,0.819669
8262.847,0.8202
8302.139,0.821061
8341.805,0.82219
8381.852,0.823693
8422.285,0.825013
8463.109,0.825738
8504.331,0.826846
8545.955,0.827792
8587.989,0.828843
8630.437,0.830325
8673.307,0.8316335
8716.604,0.833096
8760.335,0.8343511
8804.507,0.835325
8849.125,0.835739
8894.198,0.836147
8939.732,0.836583
8985.733,0.837402
9032.21,0.838634
9079.17,0.839843
9126.62,0.840782
9174.568,0.841098
9223.022,0.841389
9271.99,0.841856
9321.48,0.842431
9371.5,0.842788
9422.06,0.843475
9473.167,0.844469
9524.832,0.845043
9577.062,0.845888
9629.868,0.846703
9683.259,0.847469
9737.244,0.848637
9791.834,0.850167
9847.039,0.851702
9902.869,0.852771
9959.336,0.853933
10016.449,0.8549
10074.221,0.85595
10132.662,0.856984
10191.784,0.857882
10251.6,0.858754
10312.121,0.859441
10373.36,0.860071
10435.331,0.860601
10498.045,0.861241
10561.517,0.861897
10625.761,0.862444
10690.79,0.862916
10756.619,0.862938
10823.264,0.8627552
10890.738,0.862665
10959.058,0.862482
11028.24,0.861918
11098.301,0.861482
11169.256,0.861316
11241.124,0.861505
11313.921,0.862581
11387.667,0.863602
11462.38,0.86496
11538.079,0.866281
11614.783,0.86694
11692.513,0.867589
11771.29,0.8683129
11851.134,0.868817
11932.068,0.869107
12014.114,0.869647
12097.296,0.869215
12181.636,0.867933
12267.16,0.868729
12353.892,0.869558
12441.859,0.869871
12531.086,0.870339
12621.601,0.870241
12713.432,0.870248
12806.608,0.870576
12901.159,0.8707516
12997.116,0.870447
13094.51,0.87038
13193.373,0.869761
13293.74,0.869711
13395.644,0.870322
13499.121,0.870592
13604.208,0.871075
13710.943,0.871663
13819.365,0.87129
13929.515,0.870627
14041.433,0.869332
14155.163,0.867179
14270.749,0.864437
14388.237,0.860291
14507.674,0.855958
14629.109,0.84824
14752.594,0.836115
14878.179,0.824434
15005.92,0.803121
15135.871,0.767828
15268.092,0.720388
15402.642,0.65472
15539.583,0.577208
15678.979,0.496587
15820.897,0.424191
15965.407,0.3642997