File: csv_library/FTIR_PLG_05.csv
Database of Origin,University of Winnipeg Spectrophotometer Facility
Sample Description,IR Reflectance spectra of plagioclase with a Bruker Vertex 70 FTIR. See Master Plagioclase in PSF database for additional info.
Date Added,2016-11-22 04:00:06.339867

Data ID,FTIR_PLG_05
Sample ID,PLG113
Mineral Name,Plagioclase
Grain Size,<45 um
Viewing Geometry,"i30, e0"
Resolution,7.71cm-1
Material Class,Tectosilicate

Wavelength
1670.16,0.45516
1672.32,0.45498
1674.48,0.45474
1676.64,0.45453
1678.81,0.45468
1680.99,0.45514
1683.18,0.45537
1685.36,0.45513
1687.56,0.45472
1689.76,0.45464
1691.96,0.45468
1694.18,0.45419
1696.39,0.45347
1698.62,0.45322
1700.85,0.45367
1703.08,0.45423
1705.32,0.45419
1707.57,0.45393
1709.82,0.45399
1712.08,0.4543
1714.35,0.45455
1716.62,0.45451
1718.89,0.45433
1721.18,0.45416
1723.46,0.45401
1725.76,0.45386
1728.06,0.45387
1730.37,0.45397
1732.68,0.4538
1735,0.45365
1737.33,0.45419
1739.66,0.45469
1742,0.4544
1744.34,0.45423
1746.69,0.45435
1749.05,0.454
1751.41,0.45347
1753.78,0.45349
1756.16,0.45392
1758.54,0.45405
1760.93,0.4538
1763.33,0.45374
1765.73,0.45349
1768.14,0.453
1770.55,0.45299
1772.98,0.45348
1775.4,0.45393
1777.84,0.45389
1780.28,0.45375
1782.73,0.45388
1785.19,0.45404
1787.65,0.45414
1790.12,0.45399
1792.59,0.45362
1795.08,0.45349
1797.57,0.45396
1800.06,0.45464
1802.57,0.45501
1805.08,0.45481
1807.59,0.45442
1810.12,0.45458
1812.65,0.45521
1815.19,0.45583
1817.73,0.45701
1820.29,0.4583
1822.85,0.45821
1825.42,0.45865
1827.99,0.45981
1830.57,0.4599
1833.16,0.46064
1835.76,0.46315
1838.36,0.4647
1840.97,0.46334
1843.59,0.46129
1846.22,0.46167
1848.85,0.46134
1851.49,0.46033
1854.14,0.46114
1856.8,0.46133
1859.46,0.46033
1862.13,0.45892
1864.81,0.45961
1867.5,0.46309
1870.19,0.46639
1872.9,0.46628
1875.61,0.46262
1878.33,0.45806
1881.05,0.45593
1883.79,0.45614
1886.53,0.45646
1889.28,0.45709
1892.04,0.45717
1894.8,0.45676
1897.58,0.45849
1900.36,0.46027
1903.15,0.46052
1905.95,0.45959
1908.76,0.45749
1911.57,0.45708
1914.39,0.45707
1917.23,0.45672
1920.07,0.45687
1922.92,0.45562
1925.77,0.45445
1928.64,0.45405
1931.51,0.45341
1934.4,0.45334
1937.29,0.45358
1940.19,0.4532
1943.1,0.45263
1946.01,0.45214
1948.94,0.4518
1951.88,0.45177
1954.82,0.45182
1957.77,0.45193
1960.73,0.45198
1963.7,0.45171
1966.68,0.45148
1969.67,0.45171
1972.67,0.45189
1975.68,0.45176
1978.69,0.45175
1981.72,0.45192
1984.76,0.452
1987.8,0.45195
1990.85,0.45193
1993.92,0.45199
1996.99,0.4521
2000.07,0.4522
2003.16,0.45211
2006.26,0.45195
2009.37,0.452
2012.49,0.45211
2015.62,0.452
2018.76,0.45201
2021.91,0.45226
2025.07,0.45229
2028.24,0.45237
2031.42,0.45263
2034.61,0.4527
2037.81,0.45278
2041.02,0.45295
2044.24,0.4529
2047.46,0.45246
2050.7,0.45203
2053.95,0.45213
2057.21,0.45238
2060.48,0.4526
2063.77,0.45279
2067.06,0.45279
2070.36,0.45285
2073.67,0.45279
2077,0.45265
2080.33,0.45266
2083.67,0.45282
2087.03,0.45298
2090.4,0.45286
2093.77,0.4527
2097.16,0.45273
2100.56,0.45274
2103.97,0.45256
2107.39,0.45238
2110.82,0.45234
2114.27,0.45229
2117.72,0.45224
2121.19,0.45238
2124.66,0.45261
2128.15,0.45274
2131.65,0.45251
2135.16,0.45218
2138.69,0.45214
2142.22,0.45221
2145.77,0.45225
2149.33,0.45235
2152.9,0.45238
2156.48,0.45245
2160.08,0.45249
2163.68,0.45228
2167.3,0.45204
2170.93,0.45181
2174.57,0.45136
2178.23,0.45094
2181.89,0.45084
2185.57,0.45088
2189.27,0.45086
2192.97,0.45081
2196.69,0.45085
2200.42,0.4509
2204.16,0.45087
2207.91,0.45091
2211.68,0.45097
2215.46,0.45102
2219.26,0.45111
2223.06,0.45117
2226.88,0.45108
2230.71,0.45095
2234.56,0.45096
2238.42,0.45101
2242.29,0.45088
2246.18,0.45067
2250.08,0.45056
2253.99,0.45066
2257.92,0.45078
2261.86,0.45066
2265.813,0.45045
2269.78,0.4504
2273.76,0.45036
2277.76,0.45024
2281.77,0.45006
2285.79,0.44989
2289.83,0.45008
2293.89,0.45052
2297.95,0.45052
2302.03,0.45008
2306.13,0.44975
2310.24,0.44976
2314.37,0.44993
2318.51,0.44994
2322.66,0.44977
2326.83,0.44961
2331.02,0.44944
2335.22,0.44918
2339.43,0.4489
2343.66,0.4488
2347.91,0.44871
2352.17,0.44864
2356.45,0.44874
2360.74,0.44878
2365.05,0.44879
2369.37,0.44878
2373.71,0.44877
2378.06,0.44895
2382.44,0.44907
2386.82,0.44887
2391.23,0.44864
2395.65,0.44871
2400.08,0.44878
2404.54,0.44869
2409.01,0.44867
2413.49,0.44879
2417.99,0.44871
2422.51,0.44833
2427.05,0.44812
2431.6,0.44812
2436.17,0.44816
2440.76,0.44816
2445.37,0.4481
2449.99,0.44803
2454.63,0.44784
2459.29,0.44754
2463.96,0.44746
2468.66,0.44752
2473.37,0.44736
2478.1,0.4473
2482.84,0.44767
2487.61,0.44791
2492.39,0.44786
2497.2,0.44784
2502.02,0.44801
2506.86,0.44811
2511.72,0.44832
2516.59,0.44862
2521.49,0.44913
2526.4,0.4507
2531.34,0.45266
2536.29,0.45352
2541.26,0.45509
2546.26,0.45735
2551.27,0.45728
2556.3,0.45918
2561.35,0.46564
2566.43,0.46836
2571.52,0.4685
2576.63,0.47134
2581.76,0.47572
2586.92,0.47874
2592.09,0.47954
2597.28,0.47964
2602.5,0.48152
2607.74,0.48131
2612.99,0.47943
2618.27,0.47718
2623.57,0.47401
2628.89,0.47292
2634.24,0.46511
2639.6,0.45771
2644.99,0.45755
2650.4,0.46081
2655.83,0.46755
2661.28,0.48009
2666.76,0.49321
2672.26,0.49393
2677.779,0.48329
2683.32,0.4705
2688.89,0.46374
2694.48,0.45875
2700.09,0.4501
2705.73,0.44413
2711.39,0.43908
2717.08,0.43192
2722.78,0.41523
2728.52,0.39315
2734.27,0.3838
2740.05,0.37642
2745.86,0.36158
2751.69,0.35309
2757.54,0.3515
2763.42,0.35137
2769.327,0.34901
2775.26,0.34531
2781.21,0.34312
2787.19,0.33873
2793.2,0.33247
2799.23,0.3296
2805.29,0.32633
2811.38,0.32063
2817.49,0.31643
2823.63,0.31256
2829.79,0.30967
2835.98,0.30732
2842.2,0.30349
2848.45,0.2999
2854.72,0.29583
2861.03,0.29063
2867.36,0.28751
2873.71,0.28756
2880.1,0.28905
2886.51,0.29048
2892.96,0.29143
2899.43,0.29196
2905.93,0.29133
2912.46,0.29005
2919.02,0.28904
2925.61,0.28794
2932.23,0.28699
2938.88,0.28701
2945.56,0.28758
2952.27,0.28787
2959.01,0.28824
2965.78,0.28922
2972.58,0.2905
2979.41,0.29158
2986.28,0.29268
2993.18,0.29406
3000.1,0.29543
3007.07,0.29679
3014.06,0.29841
3021.084,0.29999
3028.14,0.30121
3035.23,0.30238
3042.36,0.30372
3049.52,0.30505
3056.71,0.30614
3063.94,0.30727
3071.2,0.30877
3078.49,0.31039
3085.82,0.31181
3093.19,0.313
3100.59,0.3144
3108.02,0.31582
3115.49,0.31678
3123,0.31791
3130.54,0.3197
3138.12,0.32166
3145.74,0.32352
3153.39,0.32525
3161.09,0.32708
3168.81,0.32933
3176.58,0.33202
3184.39,0.33489
3192.23,0.33771
3200.11,0.34052
3208.03,0.34312
3215.99,0.34531
3223.99,0.34733
3232.03,0.34915
3240.11,0.35098
3248.23,0.35293
3256.39,0.35477
3264.6,0.35667
3272.84,0.35851
3281.13,0.36024
3289.45,0.3621
3297.82,0.36398
3306.24,0.36581
3314.69,0.36763
3323.19,0.36898
3331.74,0.36978
3340.32,0.37024
3348.95,0.37025
3357.63,0.36962
3366.35,0.36881
3375.12,0.36908
3383.93,0.3704
3392.79,0.37109
3401.69,0.37027
3410.64,0.36945
3419.64,0.37118
3428.69,0.37542
3437.79,0.37986
3446.93,0.38319
3456.12,0.38543
3465.36,0.38679
3474.65,0.3877
3483.99,0.38846
3493.38,0.38931
3502.82,0.39148
3512.32,0.39528
3521.86,0.39886
3531.46,0.40126
3541.11,0.40286
3550.81,0.40421
3560.56,0.40556
3570.37,0.4066
3580.23,0.40747
3590.15,0.40852
3600.13,0.40961
3610.15,0.41066
3620.24,0.41161
3630.38,0.4125
3640.58,0.41334
3650.83,0.41412
3661.14,0.41485
3671.52,0.41537
3681.95,0.41589
3692.44,0.41661
3702.99,0.41728
3713.6,0.41783
3724.27,0.41836
3735,0.41895
3745.79,0.41948
3756.65,0.41993
3767.57,0.42045
3778.56,0.42085
3789.61,0.421
3800.72,0.42101
3811.9,0.42102
3823.14,0.42111
3834.45,0.4212
3845.83,0.42128
3857.28,0.42131
3868.79,0.42126
3880.37,0.42128
3892.03,0.42134
3903.75,0.42124
3915.54,0.42098
3927.41,0.42074
3939.35,0.42063
3951.36,0.42043
3963.44,0.42001
3975.6,0.41955
3987.83,0.41927
4000.14,0.41913
4012.52,0.41907
4024.98,0.41884
4037.52,0.41828
4050.14,0.41774
4062.84,0.4175
4075.61,0.41715
4088.47,0.41658
4101.41,0.41608
4114.43,0.41558
4127.53,0.41503
4140.72,0.41436
4153.99,0.41355
4167.35,0.4128
4180.79,0.41314
4194.32,0.41936
4207.94,0.43806
4221.65,0.4643
4235.44,0.47321
4249.33,0.45933
4263.31,0.45137
4277.38,0.45334
4291.54,0.44704
4305.8,0.43081
4320.15,0.41361
4334.6,0.4007
4349.14,0.39262
4363.79,0.38748
4378.53,0.38368
4393.37,0.38059
4408.32,0.37771
4423.36,0.37438
4438.51,0.37064
4453.76,0.36701
4469.12,0.36368
4484.58,0.36044
4500.16,0.3572
4515.84,0.35386
4531.626,0.3504
4547.53,0.34681
4563.54,0.34301
4579.66,0.33878
4595.9,0.3344
4612.26,0.33004
4628.73,0.32571
4645.32,0.32159
4662.03,0.31786
4678.86,0.31408
4695.82,0.31041
4712.89,0.30718
4730.09,0.30439
4747.42,0.30165
4764.87,0.2991
4782.45,0.29664
4800.17,0.29414
4818.01,0.29166
4835.99,0.28945
4854.1,0.28722
4872.35,0.28491
4890.74,0.28248
4909.26,0.27973
4927.93,0.2768
4946.74,0.27393
4965.69,0.27014
4984.79,0.26599
5004.03,0.26249
5023.43,0.25828
5042.98,0.25238
5062.68,0.24614
5082.53,0.23987
5102.54,0.23356
5122.71,0.22816
5143.04,0.22292
5163.53,0.21692
5184.18,0.21202
5205,0.20812
5225.99,0.20358
5247.15,0.19915
5268.48,0.19573
5289.98,0.19254
5311.66,0.18931
5333.52,0.18726
5355.56,0.18446
5377.78,0.18004
5400.19,0.17683
5422.78,0.17415
5445.57,0.17094
5468.54,0.16748
5491.72,0.16324
5515.09,0.16009
5538.65,0.15851
5562.43,0.15702
5586.4,0.15399
5610.58,0.15128
5634.98,0.15001
5659.59,0.14797
5684.41,0.146
5709.45,0.14548
5734.71,0.14458
5760.2,0.14145
5785.92,0.13721
5811.86,0.13466
5838.04,0.13276
5864.46,0.13067
5891.11,0.12701
5918.01,0.12247
5945.16,0.11858
5972.56,0.1144
6000.21,0.1107
6028.12,0.10943
6056.29,0.10951
6084.72,0.10768
6113.42,0.10569
6142.39,0.10481
6171.64,0.10387
6201.17,0.10185
6230.99,0.09976
6261.09,0.0984
6291.48,0.09798
6322.17,0.09918
6353.16,0.10145
6384.46,0.10337
6416.06,0.10425
6447.99,0.10412
6480.23,0.10436
6512.79,0.10338
6545.68,0.10231
6578.91,0.10172
6612.47,0.09966
6646.38,0.0963
6680.64,0.09292
6715.26,0.08984
6750.23,0.08729
6785.58,0.08529
6821.29,0.08314
6857.38,0.08034
6893.86,0.07648
6930.72,0.07335
6967.98,0.07101
7005.65,0.06854
7043.72,0.06548
7082.21,0.062
7121.13,0.0592
7160.47,0.05615
7200.25,0.05205
7240.48,0.04803
7281.15,0.04448
7322.29,0.04093
7363.89,0.03724
7405.97,0.0337
7448.53,0.03034
7491.59,0.02694
7535.15,0.02374
7579.21,0.02073
7623.79,0.01782
7668.91,0.01514
7714.55,0.01297
7760.75,0.01121
7807.5,0.00988
7854.82,0.00885
7902.71,0.0078
7951.2,0.00713
8000.28,0.00726
8049.97,0.0082
8100.28,0.01018
8151.23,0.01351
8202.82,0.01839
8255.06,0.0243
8307.98,0.02977
8361.58,0.03324
8415.88,0.03446
8470.88,0.03455
8526.61,0.03433
8583.08,0.0343
8640.3,0.03525
8698.29,0.03628
8757.06,0.03582
8816.63,0.0346
8877.02,0.03339
8938.24,0.03198
9000.31,0.03035
9063.25,0.02863
9127.08,0.02697
9191.81,0.02572
9257.46,0.02546
9324.07,0.02642
9391.63,0.02816
9460.18,0.03037
9529.74,0.03291
9600.33,0.03514
9671.98,0.03662
9744.7,0.03776
9818.52,0.03883
9893.47,0.03977
9969.58,0.04036
10046.9,0.04011
10125.4,0.0393
10205.1,0.03875
10286.1,0.03867
10368.4,0.03927
10452,0.04015
10537,0.0407
10623.3,0.04105
10711.1,0.04124
10800.4,0.04119
10891.1,0.04126
10983.4,0.04201
11077.3,0.04351
11172.8,0.04599
11270,0.04991
11368.8,0.05422
11469.4,0.05745
11571.8,0.05967
11676.1,0.06167
11782.2,0.06383
11890.3,0.06589
12000.4,0.06692
12112.6,0.06488
12226.8,0.05761
12343.3,0.04654
12462,0.03579
12583,0.02839
12706.3,0.02471
12832.1,0.02308
12960.5,0.0222
13091.4,0.0218
13224.9,0.02189
13361.3,0.02226
13500.5,0.02263
13642.6,0.02271
13787.7,0.02245
13936,0.02199
14087.4,0.02145
14242.3,0.02079
14400.5,0.01995
14562.3,0.0191
14727.8,0.0184
14897.1,0.01822
15070.3,0.01916
15247.6,0.02147
15429.1,0.02484
15615,0.02766
15805.4,0.02867
16000.6,0.02898
16200.6,0.03023
16405.6,0.03282
16616,0.0354
16831.8,0.03734
17053.2,0.03909
17280.6,0.03895
17514.1,0.03671
17754,0.03438
18000.6,0.03359
18254.2,0.03518
18514.9,0.03669
18783.3,0.03667
19059.5,0.03598
19344,0.0336
19637,0.03166
19939.2,0.03119
20250.7,0.0289
20572.1,0.02752
20904,0.03049
21246.6,0.03072
21600.8,0.02612
21966.9,0.02378
22345.6,0.02344
22737.6,0.0247
23143.7,0.02932
23564.5,0.03427
24000.8,0.03727
24453.7,0.04014
24923.9,0.04939
25412.6,0.05871