File: csv_library/FTIR_LNR_3_4.csv
Database of Origin,University of Winnipeg Spectrophotometer Facility
Sample Description,Lunar samples/ analogues and glasses - D and P 102F FTIR spectra (from PSF) NASA Apollo lunar samples
Other Information,diffuse gold puck 100 spectra averaged
Date Added,2018-07-23 21:03:11.417

Data ID,FTIR_LNR_3_4
Sample ID,apollo 16 ID# 61221 177 25
Grain Size,<1mm?
Viewing Geometry,i=30/ e=0
Resolution,3 cm-1
Composition,regolith sample

Wavelength
2.001142,0.459296
2.003474,0.458638
2.005812,0.45856
2.008155,0.458934
2.010504,0.458577
2.012858,0.458783
2.015217,0.459064
2.017582,0.459028
2.019952,0.458704
2.022328,0.458701
2.024709,0.458789
2.027096,0.459081
2.029488,0.458275
2.031886,0.459113
2.034289,0.458859
2.036698,0.458583
2.039113,0.459052
2.041533,0.459486
2.043959,0.459188
2.046391,0.459008
2.048828,0.459166
2.051271,0.458866
2.05372,0.459263
2.056175,0.459945
2.058635,0.460067
2.061101,0.460168
2.063573,0.460691
2.066051,0.46117
2.068534,0.460787
2.071024,0.461855
2.073519,0.461159
2.07602,0.461791
2.078528,0.461199
2.081041,0.462274
2.08356,0.462154
2.086085,0.461694
2.088617,0.462437
2.091154,0.463156
2.093697,0.463215
2.096247,0.46271
2.098803,0.463276
2.101364,0.463729
2.103932,0.463474
2.106506,0.463651
2.109087,0.46351
2.111673,0.463942
2.114266,0.463761
2.116865,0.463842
2.119471,0.465262
2.122082,0.464351
2.1247,0.466001
2.127325,0.466112
2.129956,0.466143
2.132593,0.46692
2.135237,0.466612
2.137887,0.4663
2.140544,0.467175
2.143207,0.467487
2.145876,0.467145
2.148553,0.468083
2.151235,0.468207
2.153925,0.468427
2.156621,0.468375
2.159324,0.468833
2.162033,0.468542
2.164749,0.469167
2.167472,0.469782
2.170202,0.469405
2.172938,0.470238
2.175682,0.470937
2.178432,0.470726
2.181189,0.470911
2.183952,0.4711
2.186723,0.4719606
2.189501,0.472062
2.192285,0.470512
2.195077,0.471852
2.197876,0.472431
2.200682,0.472924
2.203494,0.47388
2.206314,0.474007
2.209141,0.474542
2.211975,0.474211
2.214817,0.472763
2.217665,0.475041
2.220521,0.475559
2.223384,0.476007
2.226254,0.475503
2.229132,0.475689
2.232017,0.476786
2.23491,0.476226
2.237809,0.476286
2.240717,0.478395
2.243631,0.47906
2.246554,0.477783
2.249483,0.477418
2.252421,0.477745
2.255365,0.478352
2.258318,0.478496
2.261278,0.478339
2.264246,0.479988
2.267221,0.479048
2.270204,0.479837
2.273195,0.480408
2.276194,0.480755
2.279201,0.480642
2.282215,0.481466
2.285237,0.481299
2.288268,0.480676
2.291306,0.480919
2.294352,0.481135
2.297406,0.481333
2.300468,0.48053
2.303539,0.483189
2.306617,0.483899
2.309703,0.482143
2.312798,0.483107
2.315901,0.483434
2.319012,0.483645
2.322131,0.483459
2.325259,0.48378
2.328395,0.484658
2.33154,0.48484
2.334692,0.484663
2.337854,0.484445
2.341023,0.484227
2.344201,0.485505
2.347388,0.484433
2.350583,0.485931
2.353787,0.485269
2.357,0.485501
2.360221,0.485918
2.363451,0.485264
2.36669,0.486772
2.369937,0.486907
2.373194,0.486043
2.376459,0.486533
2.379733,0.487275
2.383016,0.487266
2.386308,0.488022
2.389609,0.487872
2.392919,0.487916
2.396238,0.48796
2.399566,0.48824
2.402903,0.488131
2.40625,0.488839
2.409606,0.489154
2.412971,0.488325
2.416345,0.489418
2.419729,0.489733
2.423122,0.489204
2.426524,0.490327
2.429936,0.488938
2.433358,0.490425
2.436789,0.489795
2.440229,0.489286
2.443679,0.491923
2.447139,0.490304
2.450609,0.490026
2.454088,0.490837
2.457577,0.490158
2.461076,0.490697
2.464585,0.49137
2.468104,0.491856
2.471632,0.49157
2.475171,0.491027
2.47872,0.492414
2.482278,0.492761
2.485847,0.492373
2.489427,0.492802
2.493016,0.493354
2.496615,0.49378
2.500225,0.494081
2.503845,0.494175
2.507476,0.494099
2.511117,0.494821
2.514769,0.496163
2.518431,0.495343
2.522103,0.495962
2.525787,0.495597
2.52948,0.495592
2.533185,0.497248
2.5369,0.498439
2.540627,0.496783
2.544364,0.498728
2.548112,0.499126
2.55187,0.501644
2.55564,0.497824
2.559421,0.500278
2.563213,0.505389
2.567016,0.49805
2.570831,0.500231
2.574656,0.503577
2.578493,0.500999
2.582342,0.50501
2.586201,0.504005
2.590072,0.502686
2.593955,0.51733
2.597849,0.501523
2.601755,0.503324
2.605672,0.51088
2.609601,0.504862
2.613542,0.502126
2.617495,0.510493
2.621459,0.509438
2.625435,0.506346
2.629424,0.507705
2.633424,0.505013
2.637437,0.502633
2.641461,0.504386
2.645498,0.505027
2.649547,0.501789
2.653609,0.506499
2.657682,0.503475
2.661768,0.506472
2.665867,0.519414
2.669978,0.516022
2.674102,0.500684
2.678238,0.510549
2.682387,0.502139
2.686549,0.502789
2.690724,0.499569
2.694911,0.506947
2.699112,0.498489
2.703325,0.499686
2.707552,0.498085
2.711791,0.506249
2.716044,0.494539
2.72031,0.50469
2.724589,0.498502
2.728882,0.486355
2.733188,0.484172
2.737508,0.48226
2.741841,0.488939
2.746188,0.477387
2.750549,0.474038
2.754923,0.477247
2.759311,0.468864
2.763713,0.472536
2.768129,0.469086
2.772559,0.46825
2.777003,0.465368
2.781461,0.463715
2.785934,0.462187
2.79042,0.461858
2.794922,0.459632
2.799437,0.459326
2.803967,0.465241
2.808512,0.457787
2.813071,0.457867
2.817645,0.456506
2.822233,0.459427
2.826837,0.45755
2.831455,0.455757
2.836089,0.457861
2.840737,0.45604
2.845401,0.455844
2.85008,0.455579
2.854774,0.456787
2.859484,0.45515
2.864209,0.454661
2.868949,0.454108
2.873705,0.453985
2.878477,0.452919
2.883265,0.452669
2.888068,0.45205
2.892887,0.45191
2.897723,0.451658
2.902574,0.451399
2.907441,0.449943
2.912325,0.449673
2.917225,0.450392
2.922142,0.449022
2.927075,0.44852
2.932024,0.448334
2.93699,0.449649
2.941973,0.44836
2.946973,0.449939
2.951989,0.447525
2.957023,0.449111
2.962073,0.447242
2.967141,0.4482
2.972226,0.448365
2.977328,0.449719
2.982448,0.449461
2.987586,0.449317
2.99274,0.45166
2.997913,0.44995
3.003103,0.452134
3.008312,0.451333
3.013538,0.452405
3.018782,0.452519
3.024044,0.453536
3.029325,0.454401
3.034624,0.456764
3.039942,0.455817
3.045278,0.45781
3.050632,0.45629
3.056006,0.456354
3.061398,0.457771
3.066809,0.458947
3.072239,0.45819
3.077689,0.458997
3.083157,0.460007
3.088645,0.460228
3.094153,0.459614
3.099679,0.460973
3.105226,0.46077
3.110792,0.461159
3.116378,0.461589
3.121985,0.461785
3.127611,0.462308
3.133257,0.462856
3.138924,0.463431
3.144611,0.464492
3.150319,0.464478
3.156047,0.465317
3.161796,0.465979
3.167566,0.466888
3.173356,0.46739
3.179168,0.468277
3.185001,0.467957
3.190856,0.469248
3.196731,0.470581
3.202629,0.471022
3.208548,0.471382
3.214488,0.474685
3.220451,0.474225
3.226436,0.475679
3.232443,0.475013
3.238472,0.476267
3.244523,0.477877
3.250598,0.477919
3.256694,0.479908
3.262814,0.478294
3.268956,0.479566
3.275122,0.479379
3.28131,0.47998
3.287522,0.481542
3.293757,0.481487
3.300016,0.482637
3.306299,0.483517
3.312605,0.483163
3.318936,0.483859
3.32529,0.484887
3.331669,0.486739
3.338072,0.484993
3.344499,0.485878
3.350952,0.48707
3.357429,0.486243
3.363931,0.488009
3.370458,0.489191
3.37701,0.489761
3.383588,0.491499
3.390191,0.49253
3.39682,0.493825
3.403475,0.495158
3.410156,0.497335
3.416862,0.498734
3.423596,0.501424
3.430355,0.500465
3.437141,0.500545
3.443954,0.50243
3.450794,0.499383
3.457661,0.500114
3.464556,0.501672
3.471477,0.50183
3.478426,0.502493
3.485403,0.503821
3.492408,0.506869
3.499441,0.506784
3.506502,0.509419
3.513592,0.509315
3.52071,0.508939
3.527857,0.508528
3.535032,0.511374
3.542237,0.51031
3.549471,0.511124
3.556735,0.512472
3.564028,0.513062
3.571351,0.514734
3.578704,0.515226
3.586088,0.516639
3.593501,0.516827
3.600946,0.51782
3.608421,0.518349
3.615926,0.520083
3.623463,0.519934
3.631032,0.520966
3.638632,0.521796
3.646263,0.522941
3.653927,0.524235
3.661623,0.525164
3.669351,0.526931
3.677111,0.528173
3.684905,0.529966
3.692731,0.531024
3.70059,0.532513
3.708483,0.533419
3.716409,0.534926
3.72437,0.536219
3.732364,0.538187
3.740392,0.540059
3.748455,0.54137
3.756553,0.542244
3.764685,0.543906
3.772853,0.545387
3.781056,0.547608
3.789294,0.548524
3.797568,0.549971
3.805879,0.551473
3.814225,0.552985
3.822609,0.553968
3.831029,0.555071
3.839486,0.556802
3.84798,0.558017
3.856512,0.558754
3.865081,0.56012
3.873689,0.5612
3.882334,0.562753
3.891019,0.564195
3.899742,0.565586
3.908504,0.56662
3.917305,0.568348
3.926146,0.56995
3.935027,0.571934
3.943948,0.573691
3.952909,0.576149
3.961911,0.577812
3.970954,0.580286
3.980038,0.582122
3.989163,0.583833
3.99833,0.584954
4.00754,0.5874
4.016791,0.588629
4.026086,0.590659
4.035423,0.592745
4.044804,0.594452
4.054228,0.596678
4.063695,0.599609
4.073207,0.602325
4.082764,0.604264
4.092365,0.606697
4.102012,0.609504
4.111703,0.61239
4.121441,0.615499
4.131224,0.617359
4.141054,0.62058
4.150931,0.624247
4.160854,0.627125
4.170826,0.62987
4.180844,0.632854
4.190911,0.63605
4.201026,0.640098
4.21119,0.644951
4.221404,0.650772
4.231666,0.656009
4.241979,0.659839
4.252341,0.660522
4.262754,0.661741
4.273219,0.667474
4.283734,0.671773
4.294301,0.673488
4.30492,0.677446
4.315592,0.679338
4.326317,0.682864
4.337095,0.684082
4.347926,0.68774
4.358811,0.693462
4.369751,0.697129
4.380746,0.701613
4.391796,0.705549
4.402902,0.71168
4.414064,0.716613
4.425282,0.721171
4.436558,0.725976
4.447891,0.731324
4.459281,0.73543
4.47073,0.74013
4.482238,0.743407
4.493805,0.746787
4.505431,0.751756
4.517118,0.754398
4.528865,0.756065
4.540674,0.758065
4.552543,0.763325
4.564475,0.764974
4.57647,0.769289
4.588527,0.774005
4.600648,0.776116
4.612833,0.778423
4.625082,0.780831
4.637397,0.784834
4.649777,0.787921
4.662223,0.79079
4.674735,0.795115
4.687315,0.802181
4.699962,0.806313
4.712678,0.812197
4.725463,0.817496
4.738316,0.82258
4.75124,0.828059
4.764234,0.833047
4.777299,0.838532
4.790436,0.84303
4.803645,0.847395
4.816927,0.852108
4.830283,0.855775
4.843712,0.858755
4.857216,0.863691
4.870795,0.865883
4.884451,0.866041
4.898182,0.870504
4.911991,0.873276
4.925878,0.875562
4.939844,0.878243
4.953888,0.880813
4.968013,0.883065
4.982218,0.885584
4.996504,0.888312
5.010872,0.890765
5.025323,0.894126
5.039857,0.896105
5.054475,0.898211
5.069179,0.900734
5.083967,0.904647
5.098842,0.906512
5.113804,0.909616
5.128854,0.91284
5.143992,0.915694
5.15922,0.917895
5.174538,0.9203
5.189947,0.923408
5.205448,0.927041
5.221041,0.930012
5.236728,0.933367
5.25251,0.935865
5.268386,0.938896
5.284358,0.941947
5.300428,0.945199
5.316595,0.948246
5.33286,0.95064
5.349226,0.956469
5.365692,0.956772
5.382259,0.960545
5.398928,0.965811
5.415701,0.976516
5.432579,0.989891
5.449561,0.0101967
5.46665,0.0109521
5.483846,0.0126841
5.50115,0.0179311
5.518564,0.667979
5.536087,0.453799
5.553723,0.579694
5.57147,0.648804
5.589332,0.697594
5.607307,0.726171
5.625399,0.748846
5.643607,0.75921
5.661934,0.779673
5.680379,0.789329
5.698945,0.800912
5.717633,0.807876
5.736443,0.818596
5.755377,0.824538
5.774436,0.832225
5.793621,0.838704
5.812934,0.844241
5.832376,0.851445
5.851948,0.856832
5.871652,0.86024
5.891488,0.864224
5.911459,0.876313
5.931565,0.870682
5.951809,0.888212
5.97219,0.887253
5.992711,0.890707
6.013374,0.893599
6.034179,0.8983
6.055129,0.896235
6.076224,0.896816
6.097466,0.902545
6.118857,0.90198
6.140398,0.90485
6.162091,0.908613
6.183938,0.905469
6.20594,0.918758
6.228099,0.92508
6.250416,0.929291
6.272893,0.933109
6.295533,0.937221
6.318336,0.940244
6.341304,0.933057
6.36444,0.941938
6.387745,0.949387
6.411221,0.931011
6.434869,0.950563
6.458693,0.955569
6.482693,0.946446
6.506872,0.964067
6.531231,0.970111
6.555774,0.968505
6.580501,0.972375
6.605415,0.97765
6.630518,0.967708
6.655812,0.985905
6.6813,0.984791
6.706983,0.986298
6.732864,0.992731
6.758945,0.994663
6.785229,0.989077
6.811718,0.99756
6.838413,0.0100272
6.865319,0.998342
6.892437,0.0100407
6.919769,0.0100747
6.947319,0.0100586
6.975089,0.0101394
7.003081,0.0101559
7.031298,0.0101515
7.059743,0.0102225
7.088419,0.0102405
7.117329,0.0102516
7.146475,0.0102591
7.17586,0.0103147
7.205487,0.0103167
7.23536,0.0103548
7.265481,0.0103722
7.295854,0.0104067
7.326481,0.0104208
7.357366,0.0104613
7.388512,0.0104805
7.419922,0.0105103
7.451601,0.0105276
7.48355,0.0105614
7.515774,0.0105801
7.548277,0.0106011
7.581061,0.0106219
7.614131,0.0106502
7.647491,0.010675
7.681143,0.0107004
7.715093,0.010719
7.749343,0.0107471
7.783899,0.0107704
7.818764,0.01079
7.853942,0.0108053
7.889437,0.0108233
7.925254,0.0108414
7.961398,0.0108853
7.997872,0.0109183
8.034682,0.0109487
8.071832,0.0109757
8.109326,0.0110004
8.147169,0.0110311
8.185368,0.0110586
8.223925,0.0110847
8.262847,0.0111132
8.302139,0.0111375
8.341805,0.0111505
8.381852,0.0111656
8.422285,0.011186
8.463109,0.0112027
8.504331,0.0112308
8.545955,0.0112482
8.587989,0.0112664
8.630437,0.0112832
8.673307,0.0112975
8.716604,0.011311
8.760335,0.0113248
8.804507,0.0113361
8.849125,0.0113388
8.894198,0.0113395
8.939732,0.0113457
8.985733,0.0113631
9.03221,0.0113701
9.07917,0.0113723
9.12662,0.0113784
9.174568,0.0113729
9.223022,0.0113844
9.27199,0.0113941
9.32148,0.0114004
9.3715,0.0114069
9.42206,0.0114249
9.473167,0.0114155
9.524832,0.0114093
9.577062,0.0114128
9.629868,0.0114089
9.683259,0.0114138
9.737244,0.0114165
9.791834,0.0114175
9.847039,0.0114223
9.902869,0.0114383
9.959336,0.0114447
10.0164,0.0114443
10.0742,0.0114479
10.1327,0.0114447
10.1918,0.011439
10.2516,0.011433
10.3121,0.0114257
10.37336,0.0114169
10.4353,0.0114089
10.498,0.0114009
10.5615,0.0113955
10.6258,0.011392
10.69079,0.0113817
10.7566,0.0113717
10.8233,0.0113748
10.8907,0.0113597
10.9591,0.0113503
11.02824,0.0113414
11.0983,0.0113233
11.1693,0.011305
11.2411,0.0112864
11.3139,0.0112682
11.3877,0.0112512
11.46238,0.0112193
11.5381,0.0112282
11.6148,0.0111976
11.6925,0.0111786
11.77129,0.0111567
11.8511,0.0111409
11.9321,0.0111065
12.0141,0.0110976
12.0973,0.0110606
12.1816,0.0110561
12.26716,0.0110317
12.3539,0.0110187
12.4419,0.0110163
12.5311,0.0109766
12.6216,0.0110048
12.7134,0.0110265
12.8066,0.0110397
12.9012,0.0110319
12.9971,0.0110153
13.09451,0.0109912
13.1934,0.0109682
13.29374,0.0109335
13.3956,0.0109299
13.4991,0.010897
13.6042,0.0108319
13.7109,0.010831
13.8194,0.0108055
13.9295,0.0107755
14.0414,0.0107277
14.1552,0.010699
14.2707,0.0106303
14.3882,0.0105674
14.5077,0.0104747
14.6291,0.0103772
14.7526,0.0102325
14.8782,0.010039
15.00592,0.981873
15.1359,0.935451
15.2681,0.868735
15.4026,0.803543
15.5396,0.699422
15.679,0.563258
15.8209,0.482333
15.9654,0.398282