File: csv_library/FTIR_OLI_02.csv
Database of Origin,University of Winnipeg Spectrophotometer Facility
Sample Description,FTIR spectra of Olivnes from PSF sample database See Master Olivines in PSF sample database for additional info
Date Added,2016-12-06 04:17:21.5374

Data ID,FTIR_OLI_02
Sample ID,olv102n
Mineral Name,Olivine
Grain Size,Whole rock
Viewing Geometry,"i=30, e=0?"
Resolution,~1.5 cm-1
Material Class,Nesosilicate

Wavelength
1999.978,0.43076
2001.725,0.4338073
2003.474,0.436609
2005.227,0.439213
2006.983,0.441554
2008.742,0.4466441
2010.504,0.45076
2012.269,0.452992
2014.037,0.456274
2015.808,0.459724
2017.582,0.463131
2019.359,0.4673446
2021.139,0.471619
2022.923,0.474692
2024.709,0.479113
2026.499,0.482638
2028.291,0.484194
2030.087,0.487998
2031.886,0.493946
2033.688,0.497641
2035.493,0.502108
2037.302,0.50715
2039.113,0.511644
2040.928,0.515115
2042.746,0.519805
2044.567,0.525088
2046.391,0.530426
2048.218,0.532586
2050.049,0.537993
2051.883,0.54444
2053.72,0.550766
2055.56,0.5545896
2057.404,0.559716
2059.251,0.566872
2061.101,0.571688
2062.954,0.575088
2064.811,0.581008
2066.671,0.585308
2068.534,0.590837
2070.401,0.595824
2072.271,0.60105
2074.144,0.605384
2076.02,0.608751
2077.9,0.614904
2079.784,0.61906
2081.67,0.622087
2083.56,0.630243
2085.454,0.63484
2087.35,0.638748
2089.251,0.643968
2091.154,0.648568
2093.061,0.654711
2094.971,0.662085
2096.885,0.668519
2098.803,0.68117
2100.723,0.693917
2102.648,0.709149
2104.575,0.731544
2106.506,0.749757
2108.441,0.760364
2110.379,0.778571
2112.321,0.795987
2114.266,0.804721
2116.215,0.809256
2118.167,0.821086
2120.123,0.830403
2122.082,0.825248
2124.045,0.819036
2126.012,0.805806
2127.982,0.780364
2129.956,0.776459
2131.933,0.8085228
2133.914,0.820806
2135.899,0.828316
2137.887,0.836317
2139.879,0.840397
2141.874,0.841647
2143.873,0.847876
2145.876,0.850046
2147.883,0.846604
2149.893,0.843492
2151.907,0.845934
2153.925,0.844565
2155.946,0.834162
2157.972,0.829527
2160.001,0.8198994
2162.033,0.814165
2164.07,0.807629
2166.11,0.800292
2168.154,0.796106
2170.202,0.788484
2172.254,0.780934
2174.309,0.780574
2176.368,0.787986
2178.432,0.787023
2180.499,0.782317
2182.57,0.784605
2184.644,0.785846
2186.723,0.784333
2188.806,0.785971
2190.892,0.790282
2192.983,0.789244
2195.077,0.787108
2197.175,0.787887
2199.278,0.790152
2201.384,0.786694
2203.494,0.785125
2205.609,0.77433
2207.727,0.7637409
2209.849,0.758087
2211.975,0.748516
2214.106,0.7322192
2216.24,0.7217118
2218.379,0.713694
2220.521,0.708399
2222.668,0.700603
2224.818,0.692132
2226.973,0.680423
2229.132,0.67319
2231.295,0.660433
2233.462,0.650702
2235.634,0.638318
2237.809,0.632439
2239.989,0.623768
2242.173,0.614247
2244.361,0.60938
2246.554,0.601924
2248.75,0.595269
2250.951,0.586893
2253.156,0.579674
2255.365,0.572741
2257.579,0.5649346
2259.797,0.558121
2262.019,0.553635
2264.246,0.5433933
2266.477,0.533688
2268.712,0.524802
2270.951,0.520254
2273.195,0.517351
2275.444,0.512925
2277.696,0.50801
2279.954,0.503582
2282.215,0.4986012
2284.481,0.493652
2286.752,0.489666
2289.026,0.484133
2291.306,0.475864
2293.59,0.470471
2295.878,0.466167
2298.171,0.460937
2300.468,0.453209
2302.77,0.446515
2305.077,0.4401125
2307.388,0.434433
2309.703,0.429121
2312.024,0.423213
2314.348,0.416392
2316.678,0.411065
2319.012,0.405664
2321.351,0.400985
2323.694,0.3967329
2326.042,0.394871
2328.395,0.394385
2330.753,0.392951
2333.115,0.388051
2335.482,0.386473
2337.854,0.387916
2340.23,0.38926
2342.611,0.391583
2344.997,0.392929
2347.388,0.394354
2349.784,0.395286
2352.184,0.395758
2354.59,0.393592
2357.0,0.391074
2359.415,0.388023
2361.835,0.385981
2364.26,0.382021
2366.69,0.378539
2369.125,0.374591
2371.564,0.371258
2374.009,0.368563
2376.459,0.366394
2378.913,0.364197
2381.373,0.361355
2383.838,0.357747
2386.308,0.35551
2388.783,0.3520541
2391.263,0.347084
2393.748,0.344077
2396.238,0.342318
2398.733,0.339903
2401.233,0.338753
2403.739,0.336563
2406.25,0.332728
2408.766,0.330925
2411.287,0.329172
2413.813,0.327034
2416.345,0.324489
2418.882,0.32177
2421.424,0.319611
2423.971,0.318345
2426.524,0.315332
2429.082,0.311862
2431.646,0.308537
2434.214,0.306704
2436.789,0.304354
2439.368,0.302601
2441.953,0.301577
2444.543,0.301444
2447.139,0.300047
2449.74,0.3001603
2452.347,0.298691
2454.959,0.296828
2457.577,0.29488
2460.2,0.293542
2462.829,0.291133
2465.464,0.2876703
2468.104,0.284669
2470.749,0.283534
2473.4,0.279896
2476.057,0.276186
2478.72,0.274441
2481.388,0.274446
2484.062,0.274552
2486.741,0.273153
2489.427,0.271607
2492.118,0.270112
2494.814,0.2678753
2497.517,0.264697
2500.225,0.261604
2502.939,0.261152
2505.659,0.259865
2508.385,0.25774
2511.117,0.258553
2513.855,0.261066
2516.598,0.261316
2519.348,0.2597884
2522.103,0.261602
2524.865,0.262369
2527.632,0.260113
2530.406,0.267163
2533.185,0.269889
2535.971,0.26783
2538.762,0.257572
2541.56,0.269446
2544.364,0.268296
2547.174,0.267588
2549.99,0.272345
2552.812,0.272439
2555.64,0.251208
2558.475,0.266009
2561.316,0.330034
2564.163,0.301827
2567.016,0.269839
2569.876,0.285748
2572.742,0.296552
2575.615,0.293886
2578.493,0.274975
2581.378,0.296994
2584.27,0.318803
2587.168,0.30005
2590.072,0.273829
2592.983,0.379252
2595.9,0.400716
2598.824,0.261839
2601.755,0.287542
2604.692,0.347762
2607.635,0.307443
2610.585,0.274102
2613.542,0.273479
2616.505,0.321605
2619.475,0.318979
2622.452,0.266441
2625.435,0.276336
2628.426,0.3068402
2631.423,0.305989
2634.426,0.261723
2637.437,0.244624
2640.454,0.247327
2643.478,0.253077
2646.509,0.252802
2649.547,0.243744
2652.592,0.2641888
2655.644,0.254824
2658.703,0.25833
2661.768,0.268095
2664.841,0.351563
2667.921,0.386315
2671.008,0.364058
2674.102,0.283258
2677.203,0.342797
2680.311,0.272149
2683.426,0.244014
2686.549,0.22988
2689.679,0.201928
2692.816,0.215729
2695.96,0.191297
2699.112,0.136649
2702.27,0.131036
2705.437,0.121889
2708.61,0.14561
2711.791,0.162021
2714.98,0.123479
2718.175,0.15744
2721.379,0.242347
2724.589,0.20445
2727.808,0.137255
2731.034,0.123577
2734.267,0.141933
2737.508,0.164706
2740.757,0.243582
2744.013,0.138231
2747.277,0.122424
2750.549,0.1281
2753.828,0.178042
2757.115,0.200449
2760.41,0.145925
2763.713,0.181043
2767.024,0.172821
2770.342,0.194378
2773.669,0.167349
2777.003,0.161396
2780.345,0.179448
2783.696,0.18812
2787.054,0.250042
2790.42,0.204585
2793.795,0.180558
2797.178,0.185678
2800.568,0.218172
2803.967,0.3401
2807.374,0.241046
2810.789,0.220248
2814.213,0.236618
2817.645,0.263674
2821.085,0.2969399
2824.533,0.255333
2827.99,0.263666
2831.455,0.273362
2834.929,0.314138
2838.411,0.326022
2841.902,0.294712
2845.401,0.290662
2848.909,0.315199
2852.425,0.325519
2855.95,0.3446637
2859.484,0.314767
2863.026,0.309621
2866.577,0.314985
2870.137,0.324225
2873.705,0.329448
2877.283,0.3123503
2880.869,0.309789
2884.464,0.313163
2888.068,0.314023
2891.681,0.310981
2895.303,0.30132
2898.934,0.306324
2902.574,0.32024
2906.223,0.302094
2909.881,0.291008
2913.549,0.282808
2917.225,0.274669
2920.911,0.272377
2924.606,0.2725502
2928.31,0.259546
2932.024,0.2535881
2935.747,0.247807
2939.479,0.244946
2943.221,0.242185
2946.973,0.236875
2950.733,0.228806
2954.504,0.223574
2958.284,0.2182271
2962.073,0.212451
2965.873,0.207931
2969.681,0.206413
2973.5,0.204002
2977.328,0.19867
2981.167,0.19464
2985.015,0.189606
2988.873,0.185965
2992.74,0.183332
2996.618,0.1818822
3000.506,0.178772
3004.404,0.176692
3008.312,0.17478
3012.23,0.171316
3016.158,0.169764
3020.096,0.1690857
3024.044,0.167205
3028.003,0.165234
3031.972,0.164782
3035.952,0.163464
3039.942,0.161775
3043.942,0.160179
3047.953,0.158985
3051.974,0.158451
3056.006,0.157978
3060.048,0.1558
3064.101,0.1551358
3068.165,0.154636
3072.239,0.1546338
3076.325,0.153862
3080.421,0.1534381
3084.527,0.152885
3088.645,0.152044
3092.774,0.151548
3096.914,0.151307
3101.064,0.1505011
3105.226,0.14965
3109.399,0.14916
3113.583,0.148131
3117.778,0.147201
3121.985,0.145964
3126.202,0.145131
3130.431,0.143704
3134.672,0.1418787
3138.924,0.141233
3143.187,0.140719
3147.462,0.139875
3151.749,0.138224
3156.047,0.1373053
3160.357,0.1364483
3164.678,0.135331
3169.011,0.1345122
3173.356,0.133587
3177.713,0.133157
3182.082,0.132956
3186.463,0.131722
3190.856,0.131342
3195.26,0.131205
3199.677,0.13038
3204.106,0.129787
3208.548,0.129194
3213.001,0.129095
3217.467,0.128624
3221.945,0.126877
3226.436,0.126348
3230.939,0.125235
3235.455,0.124227
3239.983,0.123387
3244.523,0.12318
3249.077,0.122911
3253.643,0.122613
3258.222,0.122201
3262.814,0.121047
3267.418,0.119936
3272.036,0.119714
3276.667,0.118871
3281.31,0.118406
3285.967,0.1179641
3290.637,0.117598
3295.32,0.11807
3300.016,0.117942
3304.726,0.116853
3309.449,0.116338
3314.185,0.115961
3318.936,0.115944
3323.699,0.115747
3328.476,0.1165004
3333.267,0.115963
3338.072,0.115122
3342.89,0.115319
3347.722,0.11572
3352.569,0.1163706
3357.429,0.116782
3362.303,0.118099
3367.191,0.119608
3372.093,0.12087
3377.01,0.1210574
3381.941,0.120081
3386.886,0.118562
3391.846,0.117086
3396.82,0.116859
3401.809,0.117703
3406.812,0.118885
3411.83,0.119478
3416.862,0.120017
3421.91,0.120858
3426.972,0.120857
3432.049,0.119624
3437.141,0.11836
3442.249,0.118483
3447.371,0.117405
3452.509,0.116291
3457.661,0.115877
3462.829,0.1157351
3468.013,0.115592
3473.212,0.115418
3478.426,0.115913
3483.656,0.116199
3488.902,0.117012
3494.164,0.117896
3499.441,0.118246
3504.734,0.119268
3510.043,0.119934
3515.368,0.118945
3520.71,0.1182354
3526.067,0.118192
3531.441,0.118415
3536.831,0.118821
3542.237,0.118459
3547.66,0.118854
3553.099,0.119176
3558.555,0.119434
3564.028,0.119958
3569.518,0.12043
3575.024,0.120664
3580.547,0.121137
3586.088,0.121576
3591.645,0.121624
3597.22,0.122081
3602.811,0.122174
3608.421,0.122283
3614.047,0.122799
3619.691,0.123238
3625.353,0.123545
3631.032,0.1236399
3636.729,0.1238984
3642.444,0.12416
3648.176,0.124477
3653.927,0.124867
3659.696,0.125023
3665.483,0.125664
3671.288,0.126019
3677.111,0.126288
3682.953,0.126971
3688.814,0.127104
3694.693,0.12722
3700.59,0.127889
3706.507,0.128634
3712.442,0.129076
3718.396,0.129522
3724.37,0.12995
3730.362,0.130538
3736.374,0.130921
3742.405,0.131384
3748.455,0.131915
3754.525,0.132174
3760.614,0.1323483
3766.724,0.1327578
3772.853,0.133146
3779.001,0.1333407
3785.17,0.133637
3791.359,0.133893
3797.568,0.134116
3803.798,0.134421
3810.048,0.134682
3816.318,0.134948
3822.609,0.135041
3828.92,0.135296
3835.252,0.135455
3841.606,0.135637
3847.98,0.135831
3854.375,0.1360567
3860.792,0.136306
3867.229,0.136333
3873.689,0.13643
3880.169,0.136537
3886.672,0.136621
3893.196,0.136643
3899.742,0.136733
3906.31,0.136777
3912.9,0.137061
3919.512,0.137426
3926.146,0.137461
3932.803,0.137484
3939.482,0.137873
3946.184,0.1381553
3952.909,0.138348
3959.657,0.13868
3966.427,0.139001
3973.221,0.139237
3980.038,0.139387
3986.878,0.1394729
3993.742,0.1395883
4000.629,0.139645
4007.54,0.139685
4014.475,0.139752
4021.433,0.139914
4028.416,0.140143
4035.423,0.140637
4042.454,0.14109
4049.51,0.141637
4056.59,0.142019
4063.695,0.142567
4070.825,0.143096
4077.98,0.143488
4085.16,0.14409
4092.365,0.144578
4099.596,0.145043
4106.852,0.145544
4114.133,0.145811
4121.441,0.146299
4128.774,0.146826
4136.133,0.147368
4143.519,0.147959
4150.931,0.1484886
4158.369,0.149157
4165.834,0.14989
4173.326,0.150508
4180.844,0.151374
4188.39,0.153564
4195.963,0.160983
4203.563,0.183922
4211.19,0.2409406
4218.846,0.371448
4226.529,0.682733
4234.24,0.0116243
4241.979,0.0101205
4249.746,0.450588
4257.542,0.26368
4265.366,0.329533
4273.219,0.435788
4281.1,0.420352
4289.011,0.393419
4296.951,0.346575
4304.92,0.303264
4312.919,0.262026
4320.948,0.229485
4329.006,0.210599
4337.095,0.1959939
4345.213,0.187066
4353.362,0.182265
4361.541,0.179153
4369.751,0.17688
4377.992,0.175283
4386.264,0.175634
4394.567,0.176878
4402.902,0.177975
4411.268,0.1787832
4419.666,0.179453
4428.096,0.180061
4436.558,0.180598
4445.052,0.181271
4453.579,0.182034
4462.138,0.182686
4470.73,0.183536
4479.355,0.18402
4488.014,0.184663
4496.706,0.185346
4505.431,0.186138
4514.191,0.186795
4522.984,0.187382
4531.812,0.188023
4540.674,0.188964
4549.57,0.189596
4558.502,0.1902905
4567.468,0.19123
4576.47,0.191962
4585.507,0.192501
4594.58,0.193298
4603.688,0.19423
4612.833,0.195329
4622.014,0.19629
4631.231,0.1973148
4640.485,0.198354
4649.777,0.199419
4659.105,0.200434
4668.471,0.201424
4677.874,0.20258
4687.315,0.203625
4696.794,0.204588
4706.312,0.205718
4715.868,0.206844
4725.463,0.208195
4735.096,0.209257
4744.769,0.210287
4754.482,0.211439
4764.234,0.212578
4774.026,0.2135369
4783.859,0.214745
4793.732,0.215421
4803.645,0.216221
4813.6,0.217104
4823.596,0.2181923
4833.633,0.219309
4843.712,0.220634
4853.833,0.2208903
4863.996,0.221161
4874.202,0.221396
4884.451,0.221579
4894.742,0.22245
4905.077,0.222927
4915.456,0.223235
4925.878,0.224423
4936.345,0.225431
4946.856,0.226885
4957.412,0.228484
4968.013,0.22916
4978.659,0.23045
4989.351,0.231602
5000.088,0.2329348
5010.872,0.234959
5021.703,0.238077
5032.58,0.237428
5043.504,0.238024
5054.475,0.239276
5065.495,0.240469
5076.562,0.2428
5087.678,0.244457
5098.842,0.244384
5110.055,0.245842
5121.318,0.2470143
5132.63,0.248732
5143.992,0.25362
5155.405,0.253061
5166.868,0.252618
5178.382,0.254146
5189.947,0.256618
5201.564,0.261349
5213.233,0.264724
5224.954,0.261785
5236.728,0.2641
5248.555,0.264306
5260.436,0.265638
5272.37,0.268667
5284.358,0.272439
5296.401,0.274518
5308.499,0.27332
5320.652,0.275276
5332.86,0.277401
5345.125,0.289064
5357.446,0.2901311
5369.824,0.286581
5382.259,0.2910528
5394.751,0.2972276
5407.302,0.311702
5419.911,0.345597
5432.579,0.36121
5445.305,0.410444
5458.092,0.562699
5470.939,0.0108816
5483.846,0.0151244
5496.814,0.505592
5509.843,0.230302
5522.934,0.1240515
5536.087,0.07104582
5549.303,0.03788399
5562.582,0.02026875
5575.925,0.0174105
5589.332,0.02500766
5602.803,0.0342358
5616.339,0.04281681
5629.94,0.05006489
5643.607,0.05631738
5657.341,0.06319241
5671.142,0.0690433
5685.01,0.0743324
5698.945,0.07889369
5712.949,0.08311624
5727.022,0.08800152
5741.165,0.0919833
5755.377,0.09543698
5769.659,0.09894365
5784.012,0.10448
5798.437,0.108455
5812.934,0.111214
5827.503,0.1144343
5842.146,0.119439
5856.862,0.123032
5871.652,0.125374
5886.517,0.127369
5901.457,0.131738
5916.473,0.1362509
5931.565,0.137443
5946.735,0.141363
5961.982,0.14458
5977.307,0.147008
5992.711,0.1493457
6008.195,0.151765
6023.759,0.154137
6039.403,0.15452
6055.129,0.155728
6070.936,0.159427
6086.826,0.161702
6102.8,0.1636977
6118.857,0.165151
6134.999,0.168436
6151.226,0.171168
6167.539,0.174003
6183.938,0.177093
6200.425,0.182349
6217.0,0.186871
6233.663,0.190658
6250.416,0.194552
6267.259,0.198376
6284.193,0.201821
6301.218,0.205332
6318.336,0.208849
6335.546,0.211839
6352.851,0.215302
6370.25,0.219771
6387.745,0.223011
6405.335,0.226208
6423.023,0.2293457
6440.809,0.233504
6458.693,0.237479
6476.676,0.242094
6494.76,0.244228
6512.945,0.2497358
6531.231,0.25406
6549.621,0.259412
6568.114,0.264029
6586.712,0.268934
6605.415,0.273156
6624.224,0.278411
6643.141,0.278384
6662.166,0.282652
6681.3,0.28576
6700.544,0.290876
6719.899,0.294048
6739.365,0.295712
6758.945,0.300364
6778.639,0.305582
6798.448,0.306022
6818.372,0.309171
6838.413,0.313668
6858.573,0.319207
6878.851,0.31931
6899.25,0.323234
6919.769,0.325697
6940.411,0.331614
6961.176,0.337017
6982.066,0.3400043
7003.081,0.344338
7024.223,0.350547
7045.492,0.355774
7066.891,0.356933
7088.419,0.3612899
7110.079,0.366286
7131.872,0.371791
7153.799,0.378945
7175.86,0.382862
7198.058,0.389186
7220.393,0.392858
7242.867,0.398919
7265.481,0.405787
7288.237,0.409738
7311.135,0.415255
7334.178,0.421938
7357.366,0.424276
7380.701,0.42823
7404.184,0.432886
7427.817,0.438198
7451.601,0.445877
7475.537,0.449578
7499.628,0.452903
7523.874,0.457923
7548.277,0.462957
7572.838,0.468516
7597.56,0.473354
7622.444,0.477562
7647.491,0.48214
7672.702,0.486619
7698.08,0.49146
7723.627,0.496318
7749.343,0.501139
7775.231,0.505346
7801.292,0.5100832
7827.529,0.514973
7853.942,0.519508
7880.533,0.523538
7907.305,0.5282105
7934.26,0.533608
7961.398,0.53849
7988.723,0.5434912
8016.235,0.549037
8043.937,0.554194
8071.832,0.558964
8099.92,0.56345
8128.204,0.567506
8156.686,0.5714165
8185.368,0.5749726
8214.252,0.578766
8243.34,0.582429
8272.635,0.585536
8302.139,0.588826
8331.853,0.592429
8361.781,0.5961878
8391.924,0.600058
8422.285,0.6037597
8452.866,0.606547
8483.67,0.609709
8514.699,0.613332
8545.955,0.617266
8577.442,0.6211269
8609.161,0.625206
8641.115,0.629263
8673.307,0.633119
8705.739,0.636892
8738.415,0.640428
8771.336,0.644099
8804.507,0.6478107
8837.928,0.651586
8871.604,0.655296
8905.538,0.6590972
8939.732,0.662468
8974.189,0.665554
9008.912,0.668416
9043.905,0.670974
9079.17,0.673127
9114.711,0.675573
9150.531,0.6777176
9186.634,0.679419
9223.022,0.681426
9259.699,0.6849556
9296.669,0.689744
9333.935,0.694626
9371.5,0.69869
9409.369,0.701747
9447.545,0.704657
9486.031,0.707713
9524.832,0.710907
9563.951,0.7131579
9603.393,0.716135
9643.16,0.7196
9683.259,0.723071
9723.691,0.726739
9764.463,0.730434
9805.577,0.733836
9847.039,0.737417
9888.853,0.740995
9931.022,0.7447955
9973.553,0.749115
10016.449,0.754272
10059.715,0.760829
10103.357,0.767218
10147.378,0.770359
10191.784,0.770878
10236.58,0.771891
10281.771,0.773996
10327.363,0.776933
10373.36,0.780853
10419.769,0.787667
10466.594,0.793157
10513.842,0.795924
10561.517,0.797316
10609.627,0.797794
10658.176,0.797853
10707.172,0.79747
10756.619,0.796815
10806.525,0.795752
10856.896,0.795087
10907.738,0.794672
10959.058,0.793862
11010.863,0.793074
11063.16,0.792436
11115.955,0.791456
11169.256,0.790331
11223.07,0.789615
11277.405,0.78887
11332.268,0.787806
11387.667,0.786823
11443.61,0.785405
11500.105,0.783459
11557.16,0.781937
11614.783,0.781018
11672.983,0.780501
11731.769,0.780235
11791.15,0.780835
11851.134,0.782785
11911.731,0.784073
11972.951,0.784047
12034.802,0.783519
12097.296,0.782245
12160.441,0.7813128
12224.249,0.781507
12288.729,0.78152
12353.892,0.782021
12419.75,0.782587
12486.313,0.782824
12553.593,0.783897
12621.601,0.78469
12690.349,0.784926
12759.85,0.785957
12830.116,0.786985
12901.159,0.787564
12972.993,0.787491
13045.631,0.787284
13119.087,0.786696
13193.373,0.785929
13268.505,0.7852738
13344.497,0.784464
13421.364,0.783678
13499.121,0.782328
13577.783,0.78133
13657.367,0.7811921
13737.889,0.780389
13819.365,0.779438
13901.813,0.777305
13985.25,0.774299
14069.694,0.770422
14155.163,0.765782
14241.676,0.760258
14329.252,0.75234
14417.911,0.743041
14507.674,0.731739
14598.561,0.716704
14690.592,0.696149
14783.791,0.671492
14878.179,0.645456
14973.78,0.6086821
15070.616,0.564441
15168.712,0.509838
15268.092,0.446164
15368.783,0.376829
15470.81,0.310973
15574.199,0.250254
15678.979,0.200212
15785.178,0.162026
15892.824,0.1321328
15965.407,0.116777