File: csv_library/FTIR_LNR_3_12.csv
Database of Origin,University of Winnipeg Spectrophotometer Facility
Sample Description,Lunar samples/ analogues and glasses - D and P 102F FTIR spectra (from PSF) NASA Apollo lunar samples
Other Information,diffuse gold puck 100 spectra averaged
Date Added,2018-07-23 21:03:11.6731

Data ID,FTIR_LNR_3_12
Sample ID,apollo 16  ID# 64801 176 4
Grain Size,<1mm?
Viewing Geometry,i=30/ e=0
Resolution,3 cm-1
Composition,regolith sample

Wavelength
2.001142,0.385394
2.003474,0.385597
2.005812,0.385016
2.008155,0.385447
2.010504,0.384965
2.012858,0.385139
2.015217,0.385353
2.017582,0.385396
2.019952,0.385547
2.022328,0.385339
2.024709,0.385209
2.027096,0.38488
2.029488,0.38487
2.031886,0.385855
2.034289,0.385721
2.036698,0.385465
2.039113,0.38604
2.041533,0.386528
2.043959,0.385857
2.046391,0.386253
2.048828,0.385507
2.051271,0.385801
2.05372,0.385991
2.056175,0.386108
2.058635,0.386821
2.061101,0.386722
2.063573,0.386623
2.066051,0.387457
2.068534,0.387102
2.071024,0.388114
2.073519,0.387902
2.07602,0.387868
2.078528,0.387696
2.081041,0.387963
2.08356,0.38829
2.086085,0.388344
2.088617,0.38826
2.091154,0.389721
2.093697,0.388807
2.096247,0.389727
2.098803,0.390231
2.101364,0.389534
2.103932,0.389986
2.106506,0.389909
2.109087,0.390148
2.111673,0.390218
2.114266,0.389609
2.116865,0.388976
2.119471,0.390047
2.122082,0.390259
2.1247,0.392163
2.127325,0.392286
2.129956,0.392501
2.132593,0.392467
2.135237,0.392592
2.137887,0.392479
2.140544,0.39288
2.143207,0.393339
2.145876,0.392983
2.148553,0.392911
2.151235,0.392853
2.153925,0.393512
2.156621,0.394155
2.159324,0.394155
2.162033,0.394487
2.164749,0.3952
2.167472,0.395432
2.170202,0.395704
2.172938,0.395917
2.175682,0.396196
2.178432,0.395912
2.181189,0.396779
2.183952,0.396449
2.186723,0.398377
2.189501,0.397655
2.192285,0.397208
2.195077,0.397504
2.197876,0.398504
2.200682,0.399349
2.203494,0.399725
2.206314,0.399758
2.209141,0.400007
2.211975,0.4012
2.214817,0.40041
2.217665,0.401481
2.220521,0.403302
2.223384,0.402732
2.226254,0.401836
2.229132,0.402295
2.232017,0.403877
2.23491,0.403298
2.237809,0.403662
2.240717,0.404434
2.243631,0.404873
2.246554,0.405419
2.249483,0.404911
2.252421,0.405088
2.255365,0.405514
2.258318,0.405793
2.261278,0.405023
2.264246,0.40642
2.267221,0.406374
2.270204,0.406342
2.273195,0.407302
2.276194,0.407485
2.279201,0.407316
2.282215,0.407854
2.285237,0.408768
2.288268,0.408529
2.291306,0.40844
2.294352,0.407655
2.297406,0.408156
2.300468,0.407718
2.303539,0.409707
2.306617,0.410088
2.309703,0.410655
2.312798,0.410742
2.315901,0.410164
2.319012,0.411364
2.322131,0.410379
2.325259,0.411296
2.328395,0.411391
2.33154,0.411216
2.334692,0.411502
2.337854,0.410778
2.341023,0.41194
2.344201,0.412566
2.347388,0.412667
2.350583,0.412552
2.353787,0.413675
2.357,0.413237
2.360221,0.412763
2.363451,0.413064
2.36669,0.413627
2.369937,0.413563
2.373194,0.413246
2.376459,0.414372
2.379733,0.414188
2.383016,0.414128
2.386308,0.415019
2.389609,0.414815
2.392919,0.414523
2.396238,0.416039
2.399566,0.41529
2.402903,0.415447
2.40625,0.416163
2.409606,0.416006
2.412971,0.41551
2.416345,0.416268
2.419729,0.41699
2.423122,0.416574
2.426524,0.417159
2.429936,0.416629
2.433358,0.417769
2.436789,0.417581
2.440229,0.417455
2.443679,0.419877
2.447139,0.418245
2.450609,0.418511
2.454088,0.418227
2.457577,0.418862
2.461076,0.419429
2.464585,0.419742
2.468104,0.41961
2.471632,0.420555
2.475171,0.420846
2.47872,0.421603
2.482278,0.421727
2.485847,0.421928
2.489427,0.422829
2.493016,0.423706
2.496615,0.423256
2.500225,0.42439
2.503845,0.423543
2.507476,0.424055
2.511117,0.424148
2.514769,0.425765
2.518431,0.426361
2.522103,0.426528
2.525787,0.426733
2.52948,0.426336
2.533185,0.427789
2.5369,0.428015
2.540627,0.428111
2.544364,0.428519
2.548112,0.429286
2.55187,0.432328
2.55564,0.429106
2.559421,0.431802
2.563213,0.434421
2.567016,0.42923
2.570831,0.430856
2.574656,0.43313
2.578493,0.430886
2.582342,0.436146
2.586201,0.433599
2.590072,0.432354
2.593955,0.448881
2.597849,0.430953
2.601755,0.4336
2.605672,0.43993
2.609601,0.434489
2.613542,0.432468
2.617495,0.438519
2.621459,0.438445
2.625435,0.43829
2.629424,0.439857
2.633424,0.435487
2.637437,0.433383
2.641461,0.435115
2.645498,0.436357
2.649547,0.433459
2.653609,0.437262
2.657682,0.434592
2.661768,0.436563
2.665867,0.449418
2.669978,0.448799
2.674102,0.433847
2.678238,0.440432
2.682387,0.433594
2.686549,0.434522
2.690724,0.431733
2.694911,0.437728
2.699112,0.430555
2.703325,0.430578
2.707552,0.429078
2.711791,0.433567
2.716044,0.424116
2.72031,0.432945
2.724589,0.425766
2.728882,0.41485
2.733188,0.411681
2.737508,0.408224
2.741841,0.410754
2.746188,0.402817
2.750549,0.399961
2.754923,0.402602
2.759311,0.393652
2.763713,0.394982
2.768129,0.392977
2.772559,0.391155
2.777003,0.388657
2.781461,0.387577
2.785934,0.386246
2.79042,0.384658
2.794922,0.383391
2.799437,0.382096
2.803967,0.385602
2.808512,0.381971
2.813071,0.3806
2.817645,0.379856
2.822233,0.380949
2.826837,0.381019
2.831455,0.379735
2.836089,0.380308
2.840737,0.379359
2.845401,0.378956
2.85008,0.379686
2.854774,0.379513
2.859484,0.379305
2.864209,0.379112
2.868949,0.379405
2.873705,0.37869
2.878477,0.378445
2.883265,0.378087
2.888068,0.379387
2.892887,0.379107
2.897723,0.378589
2.902574,0.378712
2.907441,0.378749
2.912325,0.378877
2.917225,0.380128
2.922142,0.378544
2.927075,0.378278
2.932024,0.379082
2.93699,0.379471
2.941973,0.379173
2.946973,0.380909
2.951989,0.378136
2.957023,0.381135
2.962073,0.379099
2.967141,0.379456
2.972226,0.380516
2.977328,0.382382
2.982448,0.380822
2.987586,0.381339
2.99274,0.383652
2.997913,0.382885
3.003103,0.385192
3.008312,0.383392
3.013538,0.385382
3.018782,0.385139
3.024044,0.385866
3.029325,0.387502
3.034624,0.390418
3.039942,0.388774
3.045278,0.390672
3.050632,0.389383
3.056006,0.389869
3.061398,0.391117
3.066809,0.393033
3.072239,0.392308
3.077689,0.392721
3.083157,0.393838
3.088645,0.394983
3.094153,0.394746
3.099679,0.395705
3.105226,0.394987
3.110792,0.395572
3.116378,0.396466
3.121985,0.396795
3.127611,0.396443
3.133257,0.397467
3.138924,0.398246
3.144611,0.398882
3.150319,0.399437
3.156047,0.399684
3.161796,0.400453
3.167566,0.40118
3.173356,0.402073
3.179168,0.403302
3.185001,0.403678
3.190856,0.404492
3.196731,0.406082
3.202629,0.406063
3.208548,0.406658
3.214488,0.41086
3.220451,0.410753
3.226436,0.41133
3.232443,0.41025
3.238472,0.411597
3.244523,0.413688
3.250598,0.414698
3.256694,0.416957
3.262814,0.413893
3.268956,0.415946
3.275122,0.415367
3.28131,0.416322
3.287522,0.418004
3.293757,0.418469
3.300016,0.419371
3.306299,0.420298
3.312605,0.420086
3.318936,0.421262
3.32529,0.422392
3.331669,0.424708
3.338072,0.423227
3.344499,0.424579
3.350952,0.426445
3.357429,0.425661
3.363931,0.427905
3.370458,0.429883
3.37701,0.430495
3.383588,0.431913
3.390191,0.43276
3.39682,0.434839
3.403475,0.43718
3.410156,0.439442
3.416862,0.441153
3.423596,0.443889
3.430355,0.442982
3.437141,0.44334
3.443954,0.446728
3.450794,0.443617
3.457661,0.444676
3.464556,0.446168
3.471477,0.446408
3.478426,0.447866
3.485403,0.449022
3.492408,0.453565
3.499441,0.453431
3.506502,0.455963
3.513592,0.45612
3.52071,0.456198
3.527857,0.456323
3.535032,0.459827
3.542237,0.459443
3.549471,0.459985
3.556735,0.461602
3.564028,0.462735
3.571351,0.465064
3.578704,0.466123
3.586088,0.468361
3.593501,0.469038
3.600946,0.470745
3.608421,0.471709
3.615926,0.474618
3.623463,0.475594
3.631032,0.476944
3.638632,0.478368
3.646263,0.480498
3.653927,0.482258
3.661623,0.484082
3.669351,0.486516
3.677111,0.488496
3.684905,0.490993
3.692731,0.492654
3.70059,0.495059
3.708483,0.497071
3.716409,0.499622
3.72437,0.501029
3.732364,0.503565
3.740392,0.506121
3.748455,0.508625
3.756553,0.510576
3.764685,0.51279
3.772853,0.515895
3.781056,0.518057
3.789294,0.5204161
3.797568,0.523121
3.805879,0.525527
3.814225,0.527766
3.822609,0.530301
3.831029,0.532638
3.839486,0.53484
3.84798,0.536674
3.856512,0.538799
3.865081,0.540818
3.873689,0.54311
3.882334,0.545481
3.891019,0.547895
3.899742,0.54998
3.908504,0.5525
3.917305,0.555747
3.926146,0.557992
3.935027,0.56069
3.943948,0.5637
3.952909,0.567153
3.961911,0.56989
3.970954,0.573789
3.980038,0.576701
3.989163,0.579415
3.99833,0.581989
4.00754,0.584682
4.016791,0.587368
4.026086,0.590395
4.035423,0.593674
4.044804,0.596808
4.054228,0.600955
4.063695,0.604661
4.073207,0.608731
4.082764,0.611554
4.092365,0.616181
4.102012,0.62042
4.111703,0.624883
4.121441,0.629706
4.131224,0.633231
4.141054,0.638477
4.150931,0.643619
4.160854,0.648246
4.170826,0.652965
4.180844,0.657741
4.190911,0.663539
4.201026,0.66878
4.21119,0.676493
4.221404,0.684468
4.231666,0.692352
4.241979,0.697906
4.252341,0.699633
4.262754,0.70408
4.273219,0.711501
4.283734,0.718448
4.294301,0.722276
4.30492,0.727998
4.315592,0.732941
4.326317,0.738457
4.337095,0.742297
4.347926,0.748685
4.358811,0.756905
4.369751,0.763388
4.380746,0.770393
4.391796,0.776358
4.402902,0.78502
4.414064,0.792073
4.425282,0.799382
4.436558,0.805933
4.447891,0.812049
4.459281,0.818247
4.47073,0.823787
4.482238,0.828192
4.493805,0.83348
4.505431,0.839922
4.517118,0.843377
4.528865,0.846884
4.540674,0.85048
4.552543,0.856852
4.564475,0.860309
4.57647,0.866046
4.588527,0.87206
4.600648,0.875753
4.612833,0.880859
4.625082,0.884661
4.637397,0.890109
4.649777,0.895169
4.662223,0.901389
4.674735,0.907551
4.687315,0.914335
4.699962,0.920217
4.712678,0.927643
4.725463,0.935015
4.738316,0.941624
4.75124,0.948899
4.764234,0.955257
4.777299,0.9618682
4.790436,0.967601
4.803645,0.972865
4.816927,0.978313
4.830283,0.982155
4.843712,0.98571
4.857216,0.99154
4.870795,0.994174
4.884451,0.995114
4.898182,0.0100041
4.911991,0.0100345
4.925878,0.0100618
4.939844,0.010093
4.953888,0.0101246
4.968013,0.0101529
4.982218,0.0101813
4.996504,0.0102128
5.010872,0.0102408
5.025323,0.0102797
5.039857,0.0103073
5.054475,0.010337
5.069179,0.0103636
5.083967,0.0104047
5.098842,0.0104255
5.113804,0.0104609
5.128854,0.0104978
5.143992,0.01053
5.15922,0.010556
5.174538,0.0105791
5.189947,0.0106198
5.205448,0.0106583
5.221041,0.0106866
5.236728,0.0107282
5.25251,0.010758
5.268386,0.0107915
5.284358,0.0108279
5.300428,0.0108629
5.316595,0.0108998
5.33286,0.0109356
5.349226,0.0110063
5.365692,0.011039
5.382259,0.0111138
5.398928,0.0112182
5.415701,0.0113946
5.432579,0.0116112
5.449561,0.0120511
5.46665,0.0130389
5.483846,0.0152825
5.50115,0.0222739
5.518564,0.813947
5.536087,0.471386
5.553723,0.624883
5.57147,0.715914
5.589332,0.777058
5.607307,0.813465
5.625399,0.843538
5.643607,0.856908
5.661934,0.883244
5.680379,0.896593
5.698945,0.91036
5.717633,0.919101
5.736443,0.93094
5.755377,0.939007
5.774436,0.945385
5.793621,0.955701
5.812934,0.96125
5.832376,0.967482
5.851948,0.974559
5.871652,0.979135
5.891488,0.98135
5.911459,0.997658
5.931565,0.991886
5.951809,0.010125
5.97219,0.0100926
5.992711,0.0101332
6.013374,0.0101486
6.034179,0.0102253
6.055129,0.0101403
6.076224,0.0101371
6.097466,0.0102232
6.118857,0.0101891
6.140398,0.010229
6.162091,0.0102569
6.183938,0.0102019
6.20594,0.0103666
6.228099,0.0104274
6.250416,0.0104758
6.272893,0.0105136
6.295533,0.0105544
6.318336,0.0105698
6.341304,0.0104601
6.36444,0.0105772
6.387745,0.0106562
6.411221,0.0103997
6.434869,0.0106603
6.458693,0.0107178
6.482693,0.0105931
6.506872,0.0108067
6.531231,0.0108644
6.555774,0.0108373
6.580501,0.010864
6.605415,0.010926
6.630518,0.0107878
6.655812,0.0110445
6.6813,0.0109998
6.706983,0.0110215
6.732864,0.011109
6.758945,0.0111228
6.785229,0.0110413
6.811718,0.0111609
6.838413,0.0112098
6.865319,0.0111197
6.892437,0.011216
6.919769,0.0112596
6.947319,0.0112313
6.975089,0.0113289
7.003081,0.0113434
7.031298,0.0113249
7.059743,0.0114072
7.088419,0.0114167
7.117329,0.0114193
7.146475,0.0114225
7.17586,0.0114661
7.205487,0.0114581
7.23536,0.0115003
7.265481,0.0115114
7.295854,0.0115487
7.326481,0.0115584
7.357366,0.0116042
7.388512,0.0116199
7.419922,0.0116495
7.451601,0.0116595
7.48355,0.011695
7.515774,0.0117181
7.548277,0.0117309
7.581061,0.0117503
7.614131,0.0117772
7.647491,0.0117987
7.681143,0.0118224
7.715093,0.0118374
7.749343,0.0118664
7.783899,0.0118918
7.818764,0.0119089
7.853942,0.0119241
7.889437,0.0119421
7.925254,0.0119536
7.961398,0.0119964
7.997872,0.012031
8.034682,0.0120665
8.071832,0.0120951
8.109326,0.0121272
8.147169,0.0121648
8.185368,0.0121927
8.223925,0.0122249
8.262847,0.012259
8.302139,0.0122849
8.341805,0.0123021
8.381852,0.0123122
8.422285,0.0123377
8.463109,0.0123551
8.504331,0.0123854
8.545955,0.0124031
8.587989,0.0124141
8.630437,0.012428
8.673307,0.012441
8.716604,0.01245
8.760335,0.0124621
8.804507,0.0124721
8.849125,0.0124722
8.894198,0.0124743
8.939732,0.0124774
8.985733,0.0124966
9.03221,0.012507
9.07917,0.0125086
9.12662,0.0125166
9.174568,0.0125037
9.223022,0.0125181
9.27199,0.0125289
9.32148,0.0125337
9.3715,0.0125394
9.42206,0.0125569
9.473167,0.012537
9.524832,0.0125252
9.577062,0.0125253
9.629868,0.0125156
9.683259,0.0125108
9.737244,0.0125081
9.791834,0.0125007
9.847039,0.0124926
9.902869,0.0125004
9.959336,0.0124995
10.0164,0.0124927
10.0742,0.0124838
10.1327,0.0124705
10.1918,0.0124597
10.2516,0.0124435
10.3121,0.0124254
10.37336,0.0124112
10.4353,0.0123999
10.498,0.0123872
10.5615,0.012376
10.6258,0.0123683
10.69079,0.0123553
10.7566,0.0123458
10.8233,0.012348
10.8907,0.0123331
10.9591,0.0123235
11.02824,0.0123164
11.0983,0.0123006
11.1693,0.0122874
11.2411,0.0122671
11.3139,0.0122513
11.3877,0.0122334
11.46238,0.0122033
11.5381,0.0121946
11.6148,0.0121742
11.6925,0.0121446
11.77129,0.0121204
11.8511,0.0120916
11.9321,0.0120512
12.0141,0.0120302
12.0973,0.011993
12.1816,0.0119836
12.26716,0.0119584
12.3539,0.0119283
12.4419,0.0119036
12.5311,0.0119048
12.6216,0.0118946
12.7134,0.0119022
12.8066,0.0118996
12.9012,0.0118759
12.9971,0.0118477
13.09451,0.0118175
13.1934,0.0117834
13.29374,0.0117477
13.3956,0.0117218
13.4991,0.0116801
13.6042,0.0116058
13.7109,0.0115899
13.8194,0.011552
13.9295,0.0115028
14.0414,0.0114431
14.1552,0.0113954
14.2707,0.0113157
14.3882,0.0112352
14.5077,0.0111257
14.6291,0.0109959
14.7526,0.0108125
14.8782,0.0106446
15.00592,0.0102584
15.1359,0.976406
15.2681,0.905423
15.4026,0.831378
15.5396,0.729564
15.679,0.579967
15.8209,0.47262
15.9654,0.403298