File: csv_library/FTIR_PYX_11.csv
Database of Origin,University of Winnipeg Spectrophotometer Facility
Sample Description,"HOSERLab master pyroxenes, FTIR data"
Date Added,2016-12-14 03:34:49.8332

Data ID,FTIR_PYX_11
Sample ID,PYX110
Mineral Name,Orthopyroxene
Grain Size,<45 um
Viewing Geometry,"i=30, e=0"
Material Class,Inosilicate

Wavelength
2000.56,0.454542
2002.307,0.455011
2004.058,0.456172
2005.812,0.457295
2007.569,0.457967
2009.329,0.459423
2011.092,0.46028
2012.858,0.461358
2014.627,0.462344
2016.399,0.463639
2018.174,0.464997
2019.952,0.465908
2021.733,0.466812
2023.518,0.467547
2025.305,0.468225
2027.096,0.469578
2028.89,0.470401
2030.686,0.471372
2032.486,0.472354
2034.289,0.4740433
2036.096,0.475401
2037.905,0.476113
2039.718,0.477296
2041.533,0.478368
2043.352,0.479599
2045.174,0.480993
2047.0,0.48156
2048.828,0.482377
2050.66,0.483734
2052.495,0.485438
2054.333,0.486162
2056.175,0.487297
2058.019,0.488546
2059.867,0.48998
2061.718,0.490919
2063.573,0.491563
2065.431,0.493341
2067.292,0.494762
2069.156,0.495553
2071.024,0.4968213
2072.895,0.4986011
2074.769,0.49984
2076.647,0.500468
2078.528,0.501257
2080.412,0.503228
2082.3,0.504937
2084.191,0.505704
2086.085,0.507109
2087.983,0.508743
2089.885,0.510224
2091.789,0.511338
2093.697,0.512437
2095.609,0.513919
2097.524,0.515261
2099.443,0.516784
2101.364,0.518543
2103.29,0.519935
2105.219,0.521825
2107.151,0.522741
2109.087,0.523943
2111.026,0.525634
2112.969,0.527142
2114.915,0.528075
2116.865,0.5296731
2118.819,0.531693
2120.776,0.5331305
2122.736,0.533522
2124.7,0.534787
2126.668,0.535825
2128.64,0.537018
2130.614,0.538845
2132.593,0.540706
2134.575,0.542268
2136.561,0.543581
2138.55,0.54492
2140.544,0.545943
2142.54,0.547518
2144.541,0.5487415
2146.545,0.550442
2148.553,0.551268
2150.564,0.552582
2152.579,0.553569
2154.598,0.554938
2156.621,0.55665
2158.647,0.55756
2160.678,0.559389
2162.712,0.5614437
2164.749,0.562792
2166.791,0.563915
2168.836,0.564729
2170.885,0.566024
2172.938,0.5671889
2174.995,0.5686857
2177.056,0.5702784
2179.12,0.5718298
2181.189,0.572274
2183.261,0.5738382
2185.337,0.575255
2187.417,0.576426
2189.501,0.577926
2191.589,0.5789415
2193.68,0.579959
2195.776,0.581219
2197.876,0.583247
2199.979,0.585193
2202.087,0.585844
2204.199,0.58671
2206.314,0.5882082
2208.434,0.589531
2210.557,0.590734
2212.685,0.591588
2214.817,0.593048
2216.952,0.593863
2219.092,0.594735
2221.236,0.595704
2223.384,0.595818
2225.536,0.596425
2227.692,0.597476
2229.853,0.598931
2232.017,0.5990148
2234.186,0.599725
2236.359,0.601169
2238.536,0.6026795
2240.717,0.6037878
2242.902,0.603998
2245.092,0.604605
2247.285,0.605673
2249.483,0.606082
2251.686,0.606828
2253.892,0.607952
2256.103,0.608594
2258.318,0.609257
2260.537,0.610022
2262.761,0.610186
2264.989,0.610708
2267.221,0.610547
2269.458,0.610645
2271.699,0.611044
2273.944,0.611535
2276.194,0.6114458
2278.448,0.61135
2280.707,0.610727
2282.97,0.6094401
2285.237,0.60689
2287.509,0.605131
2289.786,0.605666
2292.067,0.607684
2294.352,0.610535
2296.642,0.611035
2298.936,0.6104021
2301.235,0.609759
2303.539,0.607809
2305.847,0.605347
2308.159,0.603202
2310.476,0.60111
2312.798,0.601719
2315.124,0.60662
2317.455,0.611436
2319.791,0.613355
2322.131,0.6149102
2324.476,0.617917
2326.826,0.620902
2329.18,0.623229
2331.54,0.624674
2333.903,0.62589
2336.272,0.6272122
2338.645,0.627715
2341.023,0.628768
2343.406,0.630002
2345.794,0.630996
2348.186,0.631478
2350.583,0.632263
2352.986,0.632594
2355.393,0.632951
2357.804,0.6333084
2360.221,0.634005
2362.643,0.634788
2365.069,0.635187
2367.501,0.635026
2369.937,0.634542
2372.379,0.6337298
2374.825,0.633522
2377.276,0.633351
2379.733,0.633132
2382.194,0.632647
2384.661,0.633041
2387.132,0.633526
2389.609,0.6329233
2392.09,0.633193
2394.577,0.634275
2397.069,0.635597
2399.566,0.637287
2402.068,0.639203
2404.575,0.640142
2407.088,0.640486
2409.606,0.640961
2412.128,0.640951
2414.657,0.641683
2417.19,0.642207
2419.729,0.6418567
2422.272,0.64116
2424.822,0.641339
2427.376,0.641924
2429.936,0.642543
2432.501,0.642273
2435.072,0.642301
2437.648,0.642081
2440.229,0.641884
2442.816,0.642361
2445.408,0.642205
2448.006,0.642221
2450.609,0.642389
2453.217,0.64216
2455.831,0.642536
2458.451,0.642449
2461.076,0.641751
2463.707,0.6420993
2466.343,0.642281
2468.985,0.642343
2471.632,0.643296
2474.285,0.644417
2476.944,0.6449666
2479.608,0.6447665
2482.278,0.645083
2484.954,0.645695
2487.636,0.645345
2490.323,0.645897
2493.016,0.644805
2495.715,0.644616
2498.419,0.644962
2501.129,0.645034
2503.845,0.645448
2506.567,0.64522
2509.295,0.645549
2512.029,0.645587
2514.769,0.645384
2517.514,0.64534
2520.266,0.645889
2523.023,0.646434
2525.787,0.645747
2528.556,0.645951
2531.331,0.646016
2534.113,0.645873
2536.9,0.646175
2539.694,0.647106
2542.494,0.645894
2545.3,0.646607
2548.112,0.646488
2550.93,0.647127
2553.754,0.646705
2556.585,0.647147
2559.421,0.646379
2562.264,0.644083
2565.113,0.644653
2567.969,0.646821
2570.831,0.6457145
2573.699,0.645197
2576.573,0.645508
2579.454,0.647055
2582.342,0.645013
2585.235,0.64419
2588.135,0.645528
2591.042,0.648357
2593.955,0.64929
2596.874,0.643977
2599.8,0.6475763
2602.733,0.647407
2605.672,0.6463201
2608.618,0.64661
2611.57,0.64784
2614.529,0.6486409
2617.495,0.646483
2620.467,0.646556
2623.446,0.648246
2626.431,0.647828
2629.424,0.6473857
2632.423,0.646624
2635.429,0.647603
2638.442,0.649074
2641.461,0.648263
2644.488,0.647499
2647.521,0.647103
2650.561,0.648767
2653.609,0.647202
2656.663,0.646381
2659.724,0.64526
2662.792,0.64552
2665.867,0.643733
2668.949,0.641931
2672.038,0.638321
2675.135,0.638678
2678.238,0.632129
2681.349,0.627729
2684.467,0.61896
2687.591,0.6070271
2690.724,0.594722
2693.863,0.575453
2697.01,0.546877
2700.164,0.519438
2703.325,0.48565
2706.494,0.459268
2709.67,0.443641
2712.853,0.424936
2716.044,0.400918
2719.242,0.351822
2722.448,0.3660083
2725.661,0.3927825
2728.882,0.389541
2732.111,0.381184
2735.347,0.397645
2738.59,0.402863
2741.841,0.400007
2745.1,0.396342
2748.367,0.396974
2751.641,0.396851
2754.923,0.396015
2758.213,0.392892
2761.51,0.392266
2764.816,0.389555
2768.129,0.389721
2771.45,0.388481
2774.779,0.387883
2778.116,0.388096
2781.461,0.387584
2784.814,0.387246
2788.175,0.385431
2791.544,0.386984
2794.922,0.387299
2798.307,0.387617
2801.7,0.386209
2805.102,0.385028
2808.512,0.387905
2811.93,0.388197
2815.356,0.387748
2818.791,0.387814
2822.233,0.387406
2825.685,0.388087
2829.144,0.387671
2832.612,0.386791
2836.089,0.385833
2839.574,0.385374
2843.067,0.384903
2846.569,0.384314
2850.08,0.3843235
2853.599,0.384347
2857.127,0.383064
2860.664,0.383995
2864.209,0.384104
2867.763,0.382833
2871.325,0.381833
2874.897,0.38145
2878.477,0.381183
2882.066,0.381231
2885.664,0.380082
2889.271,0.380056
2892.887,0.38002
2896.512,0.3792411
2900.146,0.378556
2903.789,0.378097
2907.441,0.377817
2911.103,0.3776814
2914.773,0.3777217
2918.453,0.377889
2922.142,0.376694
2925.84,0.375582
2929.547,0.375037
2933.264,0.374668
2936.99,0.375177
2940.726,0.374995
2944.471,0.375002
2948.225,0.376028
2951.989,0.3748948
2955.763,0.375583
2959.546,0.375484
2963.339,0.375754
2967.141,0.376501
2970.953,0.376807
2974.775,0.378116
2978.607,0.378932
2982.448,0.378919
2986.3,0.379502
2990.161,0.380663
2994.032,0.381277
2997.913,0.381747
3001.804,0.383524
3005.705,0.384085
3009.616,0.384499
3013.538,0.385912
3017.469,0.386744
3021.411,0.386866
3025.363,0.387891
3029.325,0.389866
3033.298,0.391986
3037.281,0.39134
3041.274,0.3917169
3045.278,0.393014
3049.292,0.393446
3053.317,0.394051
3057.352,0.394776
3061.398,0.396076
3065.455,0.397367
3069.522,0.397346
3073.6,0.398035
3077.689,0.3996397
3081.788,0.400632
3085.899,0.40134
3090.02,0.402002
3094.153,0.40205
3098.296,0.4035157
3102.45,0.404722
3106.616,0.404801
3110.792,0.406058
3114.98,0.407301
3119.179,0.408102
3123.389,0.40931
3127.611,0.4109594
3131.844,0.4121612
3136.088,0.413281
3140.344,0.414308
3144.611,0.415875
3148.89,0.41785
3153.18,0.419164
3157.482,0.4201797
3161.796,0.421882
3166.121,0.423543
3170.458,0.424905
3174.807,0.426208
3179.168,0.428653
3183.541,0.430115
3187.926,0.4305228
3192.323,0.432591
3196.731,0.433952
3201.152,0.434551
3205.585,0.436513
3210.031,0.437906
3214.488,0.4409
3218.958,0.4424342
3223.441,0.442327
3227.936,0.443593
3232.443,0.443881
3236.963,0.445218
3241.495,0.446315
3246.04,0.448298
3250.598,0.449579
3255.168,0.451424
3259.751,0.451926
3264.347,0.450974
3268.956,0.451781
3273.578,0.452259
3278.213,0.452532
3282.861,0.45385
3287.522,0.455421
3292.196,0.456619
3296.884,0.457769
3301.585,0.4575707
3306.299,0.458041
3311.026,0.4583328
3315.767,0.459261
3320.522,0.4605008
3325.29,0.462775
3330.072,0.464959
3334.867,0.464366
3339.676,0.464424
3344.499,0.465274
3349.336,0.465959
3354.187,0.465828
3359.052,0.465179
3363.931,0.465879
3368.824,0.465781
3373.731,0.464711
3378.652,0.463969
3383.588,0.464582
3388.538,0.465532
3393.502,0.466621
3398.481,0.466896
3403.475,0.4655704
3408.483,0.463812
3413.506,0.46118
3418.543,0.460885
3423.596,0.462935
3428.663,0.466069
3433.745,0.469726
3438.842,0.473362
3443.954,0.476024
3449.082,0.476234
3454.224,0.477349
3459.382,0.478767
3464.556,0.480059
3469.744,0.480219
3474.948,0.480645
3480.168,0.481398
3485.403,0.482279
3490.654,0.484171
3495.921,0.483644
3501.204,0.482948
3506.502,0.484259
3511.817,0.487283
3517.147,0.490568
3522.494,0.493693
3527.857,0.495378
3533.236,0.497723
3538.631,0.498417
3544.043,0.498338
3549.471,0.498837
3554.916,0.499316
3560.378,0.499517
3565.856,0.500019
3571.351,0.50094
3576.863,0.5008527
3582.392,0.501078
3587.938,0.501791
3593.501,0.502097
3599.082,0.502721
3604.679,0.50232
3610.294,0.502292
3615.926,0.503304
3621.576,0.503665
3627.244,0.503903
3632.929,0.504163
3638.632,0.504418
3644.353,0.5045665
3650.091,0.505282
3655.848,0.505303
3661.623,0.505392
3667.416,0.505827
3673.227,0.505775
3679.057,0.506515
3684.905,0.506649
3690.771,0.506199
3696.656,0.506655
3702.56,0.507281
3708.483,0.506872
3714.425,0.506913
3720.385,0.50717
3726.365,0.507107
3732.364,0.5072
3738.382,0.507376
3744.419,0.507743
3750.476,0.507889
3756.553,0.507549
3762.649,0.507223
3768.764,0.5071026
3774.9,0.506852
3781.056,0.506343
3787.231,0.506302
3793.427,0.506392
3799.643,0.505933
3805.879,0.505442
3812.135,0.5053018
3818.412,0.505799
3824.71,0.505909
3831.029,0.50541
3837.368,0.505872
3843.728,0.506247
3850.109,0.506614
3856.512,0.507016
3862.935,0.5071978
3869.38,0.507448
3875.846,0.507526
3882.334,0.507583
3888.844,0.507315
3895.375,0.507099
3901.929,0.506772
3908.504,0.506382
3915.101,0.506453
3921.721,0.505873
3928.363,0.5058987
3935.027,0.506029
3941.714,0.506543
3948.423,0.507401
3955.156,0.507992
3961.911,0.509163
3968.689,0.510987
3975.491,0.513249
3982.315,0.515496
3989.163,0.516987
3996.035,0.518506
4002.93,0.52002
4009.849,0.521309
4016.791,0.521822
4023.758,0.522528
4030.749,0.523287
4037.764,0.524273
4044.804,0.525044
4051.867,0.525791
4058.956,0.526684
4066.069,0.527515
4073.207,0.528339
4080.371,0.529232
4087.559,0.530435
4094.773,0.531656
4102.012,0.532849
4109.276,0.5337112
4116.566,0.5347717
4123.882,0.536025
4131.224,0.537094
4138.592,0.538634
4145.987,0.540252
4153.407,0.5416023
4160.854,0.54291
4168.328,0.544547
4175.829,0.545851
4183.356,0.547566
4190.911,0.549997
4198.493,0.554771
4206.102,0.565951
4213.739,0.5815987
4221.404,0.596681
4229.096,0.6085311
4236.816,0.615773
4244.565,0.615111
4252.341,0.600336
4260.146,0.593893
4267.98,0.610038
4275.843,0.614156
4283.734,0.614704
4291.655,0.616452
4299.604,0.614756
4307.583,0.614269
4315.592,0.610256
4323.631,0.606909
4331.699,0.604842
4339.797,0.602282
4347.926,0.601729
4356.085,0.602668
4364.275,0.603923
4372.495,0.6063734
4380.746,0.608334
4389.029,0.612133
4397.342,0.615303
4405.687,0.617983
4414.064,0.621475
4422.472,0.624546
4430.913,0.627183
4439.386,0.629544
4447.891,0.631314
4456.428,0.63359
4464.998,0.635909
4473.602,0.638443
4482.238,0.641145
4490.908,0.642666
4499.611,0.64438
4508.347,0.646885
4517.118,0.647984
4525.923,0.648852
4534.762,0.650098
4543.635,0.6510539
4552.543,0.652435
4561.487,0.654052
4570.465,0.654463
4579.478,0.65463
4588.527,0.655945
4597.612,0.656542
4606.732,0.658442
4615.889,0.658535
4625.082,0.658486
4634.312,0.658122
4643.578,0.659534
4652.882,0.660357
4662.223,0.661747
4671.601,0.664941
4681.017,0.66838
4690.471,0.66875
4699.962,0.671972
4709.493,0.675902
4719.062,0.677459
4728.669,0.679523
4738.316,0.681371
4748.002,0.682965
4757.728,0.685315
4767.494,0.6863
4777.299,0.688072
4787.145,0.689621
4797.032,0.6904304
4806.959,0.692187
4816.927,0.694435
4826.937,0.694235
4836.988,0.6955395
4847.081,0.698082
4857.216,0.701385
4867.393,0.703969
4877.613,0.705397
4887.876,0.707022
4898.182,0.711218
4908.532,0.7142656
4918.925,0.715545
4929.362,0.718727
4939.844,0.7216698
4950.37,0.724666
4960.941,0.727013
4971.556,0.728185
4982.218,0.730152
4992.925,0.731409
5003.678,0.733539
5014.477,0.736657
5025.323,0.7383327
5036.216,0.737813
5047.156,0.73874
5058.143,0.739383
5069.179,0.740027
5080.262,0.742769
5091.394,0.742991
5102.574,0.743385
5113.804,0.744753
5125.083,0.745868
5136.412,0.749029
5147.791,0.75418
5159.22,0.753799
5170.7,0.7570684
5182.231,0.761081
5193.814,0.7673686
5205.448,0.774208
5217.134,0.777026
5228.873,0.777551
5240.665,0.782053
5252.51,0.783797
5264.408,0.787233
5276.36,0.792024
5288.367,0.797271
5300.428,0.798618
5312.544,0.799828
5324.715,0.802721
5336.942,0.806696
5349.226,0.815837
5361.566,0.8120051
5373.962,0.811332
5386.417,0.8121604
5398.928,0.813529
5411.498,0.820332
5424.127,0.826077
5436.814,0.820196
5449.561,0.822895
5462.368,0.833334
5475.234,0.837827
5488.162,0.837274
5501.15,0.836036
5514.2,0.852216
5527.312,0.869083
5540.486,0.880037
5553.723,0.800182
5567.023,0.694443
5580.387,0.713506
5593.815,0.778305
5607.307,0.79701
5620.865,0.812764
5634.489,0.821754
5648.178,0.821593
5661.934,0.82095
5675.757,0.829721
5689.647,0.830188
5703.606,0.833965
5717.633,0.841238
5731.729,0.842006
5745.894,0.846401
5760.13,0.855116
5774.436,0.854133
5788.813,0.850283
5803.262,0.854977
5817.782,0.870834
5832.376,0.8678441
5847.043,0.864781
5861.783,0.874597
5876.598,0.885777
5891.488,0.8855232
5906.454,0.875041
5921.495,0.880569
5936.613,0.890531
5951.809,0.8828472
5967.082,0.8850414
5982.433,0.885538
5997.864,0.882589
6013.374,0.8834413
6028.964,0.885025
6044.636,0.898841
6060.389,0.89613
6076.224,0.895259
6092.141,0.8920256
6108.143,0.902504
6124.228,0.896188
6140.398,0.8982903
6156.654,0.901173
6172.996,0.902641
6189.424,0.903397
6205.94,0.901568
6222.544,0.901559
6239.237,0.902489
6256.02,0.903756
6272.893,0.906892
6289.858,0.905703
6306.914,0.907196
6324.062,0.9110067
6341.304,0.915566
6358.64,0.917207
6376.071,0.918032
6393.598,0.919846
6411.221,0.929315
6428.941,0.923758
6446.759,0.922987
6464.676,0.926011
6482.693,0.9326858
6500.81,0.929407
6519.029,0.93082
6537.35,0.930881
6555.774,0.934442
6574.302,0.9366572
6592.934,0.936811
6611.673,0.939246
6630.518,0.943574
6649.47,0.937685
6668.532,0.940638
6687.702,0.940859
6706.983,0.944876
6726.375,0.942768
6745.879,0.942912
6765.497,0.947255
6785.229,0.9482305
6805.076,0.946677
6825.039,0.94872
6845.12,0.951018
6865.319,0.951526
6885.637,0.950308
6906.076,0.951415
6926.636,0.9515623
6947.319,0.9540619
6968.125,0.954629
6989.057,0.956
7010.114,0.956966
7031.298,0.959437
7052.611,0.959895
7074.052,0.959812
7095.625,0.961316
7117.329,0.963323
7139.166,0.965099
7161.137,0.965326
7183.244,0.965596
7205.487,0.966911
7227.869,0.967355
7250.39,0.969145
7273.051,0.970197
7295.854,0.970899
7318.8,0.972197
7341.891,0.972672
7365.128,0.973203
7388.512,0.975124
7412.045,0.97655
7435.728,0.97741
7459.562,0.978765
7483.55,0.979608
7507.692,0.980053
7531.99,0.980764
7556.446,0.9817253
7581.061,0.982529
7605.837,0.982757
7630.774,0.983005
7655.876,0.983345
7681.143,0.984393
7706.577,0.984795
7732.18,0.985051
7757.953,0.986039
7783.899,0.987177
7810.018,0.988323
7836.313,0.989641
7862.786,0.990828
7889.437,0.992314
7916.27,0.993464
7943.285,0.994382
7970.485,0.995421
7997.872,0.997021
8025.448,0.997927
8053.214,0.998908
8081.173,0.9997
8109.326,0.0100027
8137.676,0.0100138
8166.224,0.010022
8194.973,0.0100345
8223.925,0.0100437
8253.082,0.0100498
8282.446,0.0100616
8312.02,0.0100716
8341.805,0.0100821
8371.804,0.0100912
8402.02,0.0101002
8432.454,0.0101071
8463.109,0.0101132
8493.988,0.0101206
8525.092,0.010124
8556.425,0.0101306
8587.989,0.0101374
8619.786,0.01014051
8651.819,0.0101441
8684.091,0.0101493
8716.604,0.0101595
8749.361,0.0101666
8782.365,0.0101728
8815.619,0.0101831
8849.125,0.0101957
8882.887,0.0102047
8916.907,0.010212
8951.188,0.0102186
8985.733,0.0102221
9020.546,0.0102237
9055.629,0.0102198
9090.986,0.0102171
9126.62,0.0102136
9162.534,0.0102036
9198.731,0.0101936
9235.215,0.0101909
9271.99,0.0101871
9309.058,0.010185
9346.423,0.010185
9384.089,0.0101861
9422.06,0.0101922
9460.339,0.0101969
9498.929,0.0102048
9537.836,0.0102096
9577.062,0.010215
9616.612,0.0102179
9656.49,0.0102222
9696.699,0.0102298
9737.244,0.0102316
9778.129,0.0102282
9819.359,0.010223
9860.938,0.0102252
9902.869,0.010226
9945.159,0.0102258
9987.811,0.0102264
10030.83,0.0102291
10074.221,0.0102308
10117.988,0.0102338
10162.137,0.0102391
10206.672,0.0102458
10251.6,0.0102556
10296.924,0.010261
10342.65,0.0102649
10388.784,0.0102679
10435.331,0.0102685
10482.296,0.0102672
10529.686,0.0102666
10577.505,0.0102715
10625.761,0.0102742
10674.458,0.0102722
10723.604,0.0102703
10773.203,0.0102719
10823.264,0.0102732
10873.791,0.0102744
10924.791,0.0102784
10976.272,0.010282
11028.24,0.0102868
11080.702,0.0102883
11133.665,0.0102871
11187.137,0.0102837
11241.124,0.0102761
11295.634,0.0102749
11350.675,0.0102728
11406.254,0.0102638
11462.38,0.0102575
11519.06,0.0102518
11576.304,0.0102481
11634.118,0.010243
11692.513,0.0102402
11751.496,0.0102397
11811.077,0.0102381
11871.265,0.0102414
11932.068,0.0102456
11993.497,0.0102432
12055.562,0.0102456
12118.271,0.0102463
12181.636,0.0102423
12245.667,0.0102392
12310.373,0.0102383
12375.767,0.0102308
12441.859,0.0102219
12508.659,0.0102216
12576.18,0.0102183
12644.434,0.0102141
12713.432,0.0102136
12783.187,0.0102144
12853.71,0.0102171
12925.016,0.0102201
12997.116,0.0102256
13070.025,0.0102332
13143.756,0.0102364
13218.322,0.010245
13293.74,0.0102494
13370.021,0.0102566
13447.183,0.0102586
13525.24,0.0102562
13604.208,0.010251
13684.103,0.0102434
13764.941,0.0102292
13846.739,0.0102207
13929.515,0.010221
14013.285,0.0102144
14098.068,0.0102101
14183.883,0.0102037
14270.749,0.0101944
14358.684,0.0101961
14447.709,0.0101927
14537.844,0.0101783
14629.109,0.0101762
14721.528,0.0101579
14815.121,0.010154
14909.91,0.0100976
15005.92,0.0100861
15103.173,0.0100885
15201.695,0.0100392
15301.509,0.9951735
15402.642,0.982734
15505.12,0.963317
15608.97,0.946533
15714.22,0.909039
15820.897,0.862256
15929.033,0.819366
15965.407,0.797544