File: csv_library/FTIR_MET_4_2.csv
Database of Origin,University of Winnipeg Spectrophotometer Facility
Sample Description,16. Meteorites. 16.1 Iron meteorites and components 16.1.2. UND samples.  (a) PSF D&P spectra
Other Information,only good to 4.3 um illum. spot larger than viewed spot (8mm)
Date Added,2018-07-23 23:32:11.5377

Data ID,FTIR_MET_4_2
Sample ID,Tucson
Mineral Name,Tucson
Grain Size,Slab
Viewing Geometry,i=30/ e=0
Resolution,6 cm-1
Composition,Cloudy Spot
Material Class,Iron Meteorite

Wavelength
2000.56,0.357883
2002.307,0.357157
2004.058,0.356361
2005.812,0.355724
2007.569,0.355247
2009.329,0.354184
2011.092,0.353824
2012.858,0.353551
2014.627,0.353209
2016.399,0.352599
2018.174,0.351812
2019.952,0.351496
2021.733,0.351515
2023.518,0.350978
2025.305,0.350475
2027.096,0.349669
2028.89,0.349272
2030.686,0.349373
2032.486,0.34916
2034.289,0.34874
2036.096,0.348367
2037.905,0.347552
2039.718,0.347323
2041.533,0.347061
2043.352,0.346356
2045.174,0.346378
2047.0,0.346553
2048.828,0.345871
2050.66,0.345417
2052.495,0.345251
2054.333,0.344926
2056.175,0.3449704
2058.019,0.344692
2059.867,0.344184
2061.718,0.343973
2063.573,0.343811
2065.431,0.343668
2067.292,0.343089
2069.156,0.342897
2071.024,0.342886
2072.895,0.342317
2074.769,0.341895
2076.647,0.342071
2078.528,0.341677
2080.412,0.341495
2082.3,0.341525
2084.191,0.34126
2086.085,0.340555
2087.983,0.340737
2089.885,0.3402931
2091.789,0.339928
2093.697,0.339674
2095.609,0.339854
2097.524,0.339573
2099.443,0.3389595
2101.364,0.338833
2103.29,0.338972
2105.219,0.338696
2107.151,0.338212
2109.087,0.33831
2111.026,0.338018
2112.969,0.336983
2114.915,0.3371315
2116.865,0.337355
2118.819,0.336923
2120.776,0.336799
2122.736,0.3367034
2124.7,0.336784
2126.668,0.336468
2128.64,0.336479
2130.614,0.336144
2132.593,0.33582
2134.575,0.3354609
2136.561,0.3355
2138.55,0.335407
2140.544,0.335134
2142.54,0.334902
2144.541,0.33431
2146.545,0.334434
2148.553,0.334444
2150.564,0.334021
2152.579,0.333705
2154.598,0.33412
2156.621,0.334377
2158.647,0.334012
2160.678,0.333908
2162.712,0.333652
2164.749,0.333473
2166.791,0.333486
2168.836,0.333004
2170.885,0.332725
2172.938,0.332862
2174.995,0.332656
2177.056,0.332724
2179.12,0.332913
2181.189,0.332623
2183.261,0.332324
2185.337,0.332346
2187.417,0.332559
2189.501,0.332422
2191.589,0.332175
2193.68,0.332346
2195.776,0.332234
2197.876,0.332036
2199.979,0.331702
2202.087,0.332113
2204.199,0.332239
2206.314,0.331946
2208.434,0.332106
2210.557,0.331893
2212.685,0.331821
2214.817,0.3316351
2216.952,0.331308
2219.092,0.330748
2221.236,0.33098
2223.384,0.331077
2225.536,0.3307318
2227.692,0.330331
2229.853,0.330262
2232.017,0.330221
2234.186,0.330058
2236.359,0.329544
2238.536,0.329227
2240.717,0.329385
2242.902,0.3294622
2245.092,0.329123
2247.285,0.328768
2249.483,0.328434
2251.686,0.328407
2253.892,0.328015
2256.103,0.327907
2258.318,0.327376
2260.537,0.327477
2262.761,0.32743
2264.989,0.32722
2267.221,0.326854
2269.458,0.327044
2271.699,0.327104
2273.944,0.326925
2276.194,0.326759
2278.448,0.3265339
2280.707,0.326217
2282.97,0.326136
2285.237,0.325955
2287.509,0.32553
2289.786,0.325557
2292.067,0.3255375
2294.352,0.325616
2296.642,0.325672
2298.936,0.325459
2301.235,0.324873
2303.539,0.324918
2305.847,0.3243814
2308.159,0.324227
2310.476,0.324364
2312.798,0.324312
2315.124,0.32401
2317.455,0.324305
2319.791,0.324429
2322.131,0.32446
2324.476,0.324213
2326.826,0.324188
2329.18,0.3242963
2331.54,0.324104
2333.903,0.323704
2336.272,0.323369
2338.645,0.32345
2341.023,0.3234893
2343.406,0.323592
2345.794,0.323532
2348.186,0.323422
2350.583,0.32317
2352.986,0.32299
2355.393,0.323216
2357.804,0.323268
2360.221,0.323149
2362.643,0.3230192
2365.069,0.3229068
2367.501,0.322841
2369.937,0.32285
2372.379,0.323064
2374.825,0.323027
2377.276,0.322757
2379.733,0.322634
2382.194,0.322557
2384.661,0.322378
2387.132,0.322288
2389.609,0.322475
2392.09,0.322273
2394.577,0.322123
2397.069,0.322169
2399.566,0.322474
2402.068,0.322316
2404.575,0.32206
2407.088,0.322135
2409.606,0.322362
2412.128,0.322441
2414.657,0.322603
2417.19,0.322487
2419.729,0.322642
2422.272,0.322661
2424.822,0.322372
2427.376,0.3224533
2429.936,0.322793
2432.501,0.322878
2435.072,0.323166
2437.648,0.323246
2440.229,0.323385
2442.816,0.323749
2445.408,0.3237126
2448.006,0.32352
2450.609,0.323296
2453.217,0.323466
2455.831,0.323227
2458.451,0.32299
2461.076,0.323308
2463.707,0.323225
2466.343,0.323248
2468.985,0.323545
2471.632,0.3241474
2474.285,0.32389
2476.944,0.324207
2479.608,0.324201
2482.278,0.324415
2484.954,0.324856
2487.636,0.324926
2490.323,0.32493
2493.016,0.3249
2495.715,0.324812
2498.419,0.3250329
2501.129,0.325523
2503.845,0.326008
2506.567,0.325743
2509.295,0.3257607
2512.029,0.326401
2514.769,0.32686
2517.514,0.326893
2520.266,0.326996
2523.023,0.327606
2525.787,0.327597
2528.556,0.328137
2531.331,0.330209
2534.113,0.330954
2536.9,0.330163
2539.694,0.328451
2542.494,0.332779
2545.3,0.33189
2548.112,0.332467
2550.93,0.334315
2553.754,0.332383
2556.585,0.328637
2559.421,0.336551
2562.264,0.349058
2565.113,0.338797
2567.969,0.33524
2570.831,0.338815
2573.699,0.342022
2576.573,0.340383
2579.454,0.336216
2582.342,0.34489
2585.235,0.346355
2588.135,0.342663
2591.042,0.3379852
2593.955,0.365322
2596.874,0.350466
2599.8,0.334786
2602.733,0.345703
2605.672,0.354456
2608.618,0.34398
2611.57,0.337338
2614.529,0.341738
2617.495,0.352676
2620.467,0.346481
2623.446,0.335141
2626.431,0.3425099
2629.424,0.349959
2632.423,0.346738
2635.429,0.336734
2638.442,0.332977
2641.461,0.334996
2644.488,0.337931
2647.521,0.336932
2650.561,0.336517
2653.609,0.342904
2656.663,0.3399185
2659.724,0.343553
2662.792,0.348437
2665.867,0.370902
2668.949,0.37322
2672.038,0.362944
2675.135,0.357705
2678.238,0.3699374
2681.349,0.350806
2684.467,0.352072
2687.591,0.351809
2690.724,0.349853
2693.863,0.369575
2697.01,0.366629
2700.164,0.365866
2703.325,0.374244
2706.494,0.381879
2709.67,0.4242289
2712.853,0.423165
2716.044,0.408135
2719.242,0.456333
2722.448,0.479084
2725.661,0.444967
2728.882,0.398182
2732.111,0.389474
2735.347,0.394885
2738.59,0.407912
2741.841,0.408652
2745.1,0.363591
2748.367,0.35485
2751.641,0.354722
2754.923,0.374151
2758.213,0.359462
2761.51,0.351094
2764.816,0.357261
2768.129,0.353635
2771.45,0.352831
2774.779,0.342508
2778.116,0.341629
2781.461,0.343598
2784.814,0.343528
2788.175,0.35049
2791.544,0.338384
2794.922,0.334989
2798.307,0.334323
2801.7,0.341509
2805.102,0.347538
2808.512,0.335768
2811.93,0.333061
2815.356,0.334187
2818.791,0.336011
2822.233,0.33557
2825.685,0.33003
2829.144,0.330237
2832.612,0.330564
2836.089,0.332618
2839.574,0.330465
2843.067,0.327323
2846.569,0.32661
2850.08,0.327353
2853.599,0.3274986
2857.127,0.326659
2860.664,0.3243867
2864.209,0.3231187
2867.763,0.323246
2871.325,0.3229603
2874.897,0.322085
2878.477,0.320811
2882.066,0.3200882
2885.664,0.319352
2889.271,0.3191837
2892.887,0.317616
2896.512,0.315972
2900.146,0.316618
2903.789,0.316677
2907.441,0.315325
2911.103,0.314329
2914.773,0.313575
2918.453,0.313081
2922.142,0.313173
2925.84,0.311909
2929.547,0.31056
2933.264,0.309561
2936.99,0.309006
2940.726,0.308406
2944.471,0.307901
2948.225,0.307907
2951.989,0.306852
2955.763,0.30705
2959.546,0.305568
2963.339,0.304747
2967.141,0.304487
2970.953,0.3041838
2974.775,0.304539
2978.607,0.303457
2982.448,0.302525
2986.3,0.301728
2990.161,0.301759
2994.032,0.301742
2997.913,0.301532
3001.804,0.301176
3005.705,0.300805
3009.616,0.300272
3013.538,0.300164
3017.469,0.300071
3021.411,0.299859
3025.363,0.299279
3029.325,0.299561
3033.298,0.300309
3037.281,0.299379
3041.274,0.299092
3045.278,0.299456
3049.292,0.2992
3053.317,0.299313
3057.352,0.299474
3061.398,0.299739
3065.455,0.300771
3069.522,0.30086
3073.6,0.300997
3077.689,0.301401
3081.788,0.301881
3085.899,0.302106
3090.02,0.302229
3094.153,0.302043
3098.296,0.30234
3102.45,0.302712
3106.616,0.302082
3110.792,0.302226
3114.98,0.302227
3119.179,0.301937
3123.389,0.3018498
3127.611,0.302201
3131.844,0.302548
3136.088,0.302282
3140.344,0.30248
3144.611,0.3028175
3148.89,0.303362
3153.18,0.3034
3157.482,0.303884
3161.796,0.304286
3166.121,0.304521
3170.458,0.30485
3174.807,0.305102
3179.168,0.30599
3183.541,0.3065
3187.926,0.305731
3192.323,0.30651
3196.731,0.30709
3201.152,0.306977
3205.585,0.307334
3210.031,0.307682
3214.488,0.3089578
3218.958,0.308953
3223.441,0.3080794
3227.936,0.307983
3232.443,0.307857
3236.963,0.307701
3241.495,0.307597
3246.04,0.308074
3250.598,0.308474
3255.168,0.309
3259.751,0.308854
3264.347,0.3077049
3268.956,0.308178
3273.578,0.308314
3278.213,0.308209
3282.861,0.308565
3287.522,0.308922
3292.196,0.309302
3296.884,0.310264
3301.585,0.309741
3306.299,0.309886
3311.026,0.30969
3315.767,0.309857
3320.522,0.309968
3325.29,0.3107377
3330.072,0.311383
3334.867,0.310135
3339.676,0.309606
3344.499,0.309678
3349.336,0.309712
3354.187,0.309081
3359.052,0.307943
3363.931,0.30796
3368.824,0.307282
3373.731,0.305902
3378.652,0.304344
3383.588,0.3033035
3388.538,0.302969
3393.502,0.30328
3398.481,0.303024
3403.475,0.3021538
3408.483,0.300056
3413.506,0.296475
3418.543,0.2937
3423.596,0.291974
3428.663,0.290815
3433.745,0.293885
3438.842,0.299816
3443.954,0.303749
3449.082,0.304392
3454.224,0.3054954
3459.382,0.306755
3464.556,0.308225
3469.744,0.309044
3474.948,0.309427
3480.168,0.309386
3485.403,0.309452
3490.654,0.310428
3495.921,0.309402
3501.204,0.306872
3506.502,0.303878
3511.817,0.302843
3517.147,0.307871
3522.494,0.3134074
3527.857,0.316309
3533.236,0.318707
3538.631,0.319735
3544.043,0.320145
3549.471,0.320911
3554.916,0.321752
3560.378,0.32248
3565.856,0.323404
3571.351,0.3244174
3576.863,0.324801
3582.392,0.325517
3587.938,0.326406
3593.501,0.326967
3599.082,0.327914
3604.679,0.327821
3610.294,0.3282526
3615.926,0.329333
3621.576,0.32966
3627.244,0.329907
3632.929,0.330446
3638.632,0.331284
3644.353,0.331831
3650.091,0.3328087
3655.848,0.333235
3661.623,0.333665
3667.416,0.334338
3673.227,0.334983
3679.057,0.335879
3684.905,0.33652
3690.771,0.33678
3696.656,0.337517
3702.56,0.3383712
3708.483,0.3391299
3714.425,0.340026
3720.385,0.340799
3726.365,0.341548
3732.364,0.342215
3738.382,0.342918
3744.419,0.3442042
3750.476,0.345196
3756.553,0.345644
3762.649,0.346541
3768.764,0.347368
3774.9,0.348399
3781.056,0.34931
3787.231,0.350062
3793.427,0.350845
3799.643,0.351765
3805.879,0.352674
3812.135,0.353451
3818.412,0.353925
3824.71,0.35454
3831.029,0.355492
3837.368,0.356277
3843.728,0.356964
3850.109,0.357883
3856.512,0.358799
3862.935,0.359664
3869.38,0.360554
3875.846,0.361407
3882.334,0.362376
3888.844,0.363373
3895.375,0.364021
3901.929,0.364888
3908.504,0.365825
3915.101,0.366606
3921.721,0.36746
3928.363,0.3684419
3935.027,0.3693573
3941.714,0.370343
3948.423,0.371168
3955.156,0.372008
3961.911,0.373088
3968.689,0.374356
3975.491,0.375561
3982.315,0.376791
3989.163,0.377958
3996.035,0.378947
4002.93,0.380222
4009.849,0.381492
4016.791,0.382495
4023.758,0.383617
4030.749,0.384758
4037.764,0.385939
4044.804,0.387426
4051.867,0.389043
4058.956,0.390489
4066.069,0.391982
4073.207,0.393518
4080.371,0.395217
4087.559,0.396955
4094.773,0.398652
4102.012,0.400304
4109.276,0.402073
4116.566,0.403928
4123.882,0.405981
4131.224,0.408138
4138.592,0.410475
4145.987,0.412474
4153.407,0.414549
4160.854,0.416916
4168.328,0.419113
4175.829,0.421561
4183.356,0.423698
4190.911,0.426786
4198.493,0.4342
4206.102,0.450371
4213.739,0.476047
4221.404,0.506272
4229.096,0.5352199
4236.816,0.551113
4244.565,0.543385
4252.341,0.507847
4260.146,0.491285
4267.98,0.519414
4275.843,0.530892
4283.734,0.530544
4291.655,0.53085
4299.604,0.525063
4307.583,0.518867
4315.592,0.51052
4323.631,0.503293
4331.699,0.498198
4339.797,0.494493
4347.926,0.493156
4356.085,0.493668
4364.275,0.494918
4372.495,0.4962
4380.746,0.4977249
4389.029,0.50114
4397.342,0.504958
4405.687,0.508257
4414.064,0.511664
4422.472,0.515418
4430.913,0.518804
4439.386,0.521229
4447.891,0.524039
4456.428,0.5269845
4464.998,0.529009
4473.602,0.531104
4482.238,0.5329522
4490.908,0.534618
4499.611,0.535829
4508.347,0.537258
4517.118,0.539223
4525.923,0.541696
4534.762,0.544182
4543.635,0.546128
4552.543,0.548421
4561.487,0.551118
4570.465,0.552633
4579.478,0.554819
4588.527,0.557511
4597.612,0.559286
4606.732,0.5620076
4615.889,0.564419
4625.082,0.567059
4634.312,0.569299
4643.578,0.571518
4652.882,0.574631
4662.223,0.576736
4671.601,0.579344
4681.017,0.582495
4690.471,0.585197
4699.962,0.587772
4709.493,0.590094
4719.062,0.59301
4728.669,0.596462
4738.316,0.598883
4748.002,0.601305
4757.728,0.603291
4767.494,0.6055086
4777.299,0.60795
4787.145,0.610226
4797.032,0.612063
4806.959,0.6149419
4816.927,0.617351
4826.937,0.618982
4836.988,0.622093
4847.081,0.624186
4857.216,0.624896
4867.393,0.62685
4877.613,0.629116
4887.876,0.6313603
4898.182,0.63394
4908.532,0.634348
4918.925,0.636412
4929.362,0.639286
4939.844,0.640469
4950.37,0.643621
4960.941,0.646158
4971.556,0.646926
4982.218,0.648613
4992.925,0.651001
5003.678,0.653859
5014.477,0.658482
5025.323,0.661597
5036.216,0.6581297
5047.156,0.659257
5058.143,0.661313
5069.179,0.663185
5080.262,0.66816
5091.394,0.6687213
5102.574,0.669323
5113.804,0.671642
5125.083,0.6734145
5136.412,0.677604
5147.791,0.684574
5159.22,0.680264
5170.7,0.681239
5182.231,0.682828
5193.814,0.688826
5205.448,0.696417
5217.134,0.697303
5228.873,0.694346
5240.665,0.698085
5252.51,0.696999
5264.408,0.699856
5276.36,0.705044
5288.367,0.710788
5300.428,0.709489
5312.544,0.70865
5324.715,0.71093
5336.942,0.7156301
5349.226,0.733455
5361.566,0.724936
5373.962,0.722869
5386.417,0.726452
5398.928,0.732705
5411.498,0.75309
5424.127,0.777511
5436.814,0.778083
5449.561,0.811388
5462.368,0.885307
5475.234,0.980937
5488.162,0.0111428
5501.15,0.0142196
5514.2,0.0225108
5527.312,0.0172859
5540.486,0.650858
5553.723,0.239202
5567.023,0.152996
5580.387,0.1857143
5593.815,0.2383284
5607.307,0.281046
5620.865,0.3160073
5634.489,0.341419
5648.178,0.365503
5661.934,0.390052
5675.757,0.406048
5689.647,0.421822
5703.606,0.433004
5717.633,0.445687
5731.729,0.4585828
5745.894,0.467866
5760.13,0.473439
5774.436,0.484039
5788.813,0.496239
5803.262,0.504423
5817.782,0.5083873
5832.376,0.517448
5847.043,0.526414
5861.783,0.533002
5876.598,0.533857
5891.488,0.537918
5906.454,0.547328
5921.495,0.552706
5936.613,0.5542863
5951.809,0.561524
5967.082,0.564943
5982.433,0.568445
5997.864,0.570126
6013.374,0.573451
6028.964,0.5754977
6044.636,0.571937
6060.389,0.5786374
6076.224,0.581832
6092.141,0.584994
6108.143,0.587822
6124.228,0.589508
6140.398,0.595012
6156.654,0.5985097
6172.996,0.601407
6189.424,0.605688
6205.94,0.613561
6222.544,0.619201
6239.237,0.623538
6256.02,0.627803
6272.893,0.632366
6289.858,0.6358579
6306.914,0.639572
6324.062,0.643673
6341.304,0.64629
6358.64,0.651101
6376.071,0.655165
6393.598,0.658862
6411.221,0.662024
6428.941,0.664852
6446.759,0.6688411
6464.676,0.673924
6482.693,0.67744
6500.81,0.678758
6519.029,0.685368
6537.35,0.689725
6555.774,0.695393
6574.302,0.699198
6592.934,0.703151
6611.673,0.707332
6630.518,0.710718
6649.47,0.7085226
6668.532,0.713847
6687.702,0.71478
6706.983,0.721095
6726.375,0.7202259
6745.879,0.72139
6765.497,0.726218
6785.229,0.728288
6805.076,0.726262
6825.039,0.729139
6845.12,0.734043
6865.319,0.735092
6885.637,0.734453
6906.076,0.736489
6926.636,0.737385
6947.319,0.743102
6968.125,0.745738
6989.057,0.747658
7010.114,0.750176
7031.298,0.755346
7052.611,0.757024
7074.052,0.756915
7095.625,0.759903
7117.329,0.763613
7139.166,0.7685617
7161.137,0.772265
7183.244,0.773674
7205.487,0.777512
7227.869,0.778947
7250.39,0.783417
7273.051,0.787212
7295.854,0.7881911
7318.8,0.792356
7341.891,0.7948
7365.128,0.795263
7388.512,0.797762
7412.045,0.800346
7435.728,0.803755
7459.562,0.808529
7483.55,0.8090118
7507.692,0.811022
7531.99,0.812884
7556.446,0.815406
7581.061,0.817976
7605.837,0.819808
7630.774,0.821184
7655.876,0.822785
7681.143,0.824683
7706.577,0.826895
7732.18,0.828616
7757.953,0.830254
7783.899,0.831788
7810.018,0.833598
7836.313,0.83537
7862.786,0.83704
7889.437,0.838576
7916.27,0.8403115
7943.285,0.842699
7970.485,0.844614
7997.872,0.846694
8025.448,0.848845
8053.214,0.850516
8081.173,0.8521181
8109.326,0.853682
8137.676,0.855053
8166.224,0.856131
8194.973,0.857227
8223.925,0.858453
8253.082,0.859467
8282.446,0.860538
8312.02,0.8615271
8341.805,0.862768
8371.804,0.864245
8402.02,0.865562
8432.454,0.8667097
8463.109,0.86716
8493.988,0.867883
8525.092,0.868718
8556.425,0.8694941
8587.989,0.8702483
8619.786,0.871156
8651.819,0.872027
8684.091,0.872764
8716.604,0.873418
8749.361,0.87439
8782.365,0.875248
8815.619,0.8760698
8849.125,0.876825
8882.887,0.8779044
8916.907,0.878935
8951.188,0.879578
8985.733,0.879926
9020.546,0.880376
9055.629,0.880398
9090.986,0.880362
9126.62,0.88034
9162.534,0.880036
9198.731,0.879731
9235.215,0.879578
9271.99,0.879749
9309.058,0.88006
9346.423,0.880816
9384.089,0.881824
9422.06,0.88277
9460.339,0.88412
9498.929,0.885571
9537.836,0.887454
9577.062,0.888811
9616.612,0.889815
9656.49,0.891015
9696.699,0.8923371
9737.244,0.893334
9778.129,0.89425
9819.359,0.895627
9860.938,0.896406
9902.869,0.897133
9945.159,0.898229
9987.811,0.898951
10030.83,0.899658
10074.221,0.900287
10117.988,0.90096
10162.137,0.9017465
10206.672,0.902687
10251.6,0.903635
10296.924,0.904416
10342.65,0.904896
10388.784,0.9055172
10435.331,0.905946
10482.296,0.906353
10529.686,0.9065
10577.505,0.906415
10625.761,0.906331
10674.458,0.905834
10723.604,0.905632
10773.203,0.90533
10823.264,0.90462
10873.791,0.904026
10924.791,0.903626
10976.272,0.902989
11028.24,0.902183
11080.702,0.901856
11133.665,0.901507
11187.137,0.901088
11241.124,0.9007189
11295.634,0.900525
11350.675,0.900317
11406.254,0.90003
11462.38,0.899896
11519.06,0.89972
11576.304,0.899335
11634.118,0.898953
11692.513,0.898834
11751.496,0.898906
11811.077,0.898823
11871.265,0.898857
11932.068,0.899246
11993.497,0.899395
12055.562,0.898991
12118.271,0.898212
12181.636,0.897756
12245.667,0.897051
12310.373,0.896488
12375.767,0.895971
12441.859,0.895581
12508.659,0.895292
12576.18,0.895161
12644.434,0.894866
12713.432,0.894451
12783.187,0.893948
12853.71,0.893316
12925.016,0.892823
12997.116,0.891897
13070.025,0.8905692
13143.756,0.889535
13218.322,0.888746
13293.74,0.887451
13370.021,0.88631
13447.183,0.885049
13525.24,0.8831663
13604.208,0.881564
13684.103,0.879087
13764.941,0.876321
13846.739,0.87326
13929.515,0.8696767
14013.285,0.864969
14098.068,0.859596
14183.883,0.853657
14270.749,0.846388
14358.684,0.837039
14447.709,0.826059
14537.844,0.8134175
14629.109,0.797549
14721.528,0.777883
14815.121,0.756525
14909.91,0.717673
15005.92,0.685896
15103.173,0.653202
15201.695,0.598434
15301.509,0.531681
15402.642,0.46221
15505.12,0.395368
15608.97,0.329326
15714.22,0.27288
15820.897,0.230363
15929.033,0.196108
15965.407,0.186129