File: csv_library/FTIR_PYX_14.csv
Database of Origin,University of Winnipeg Spectrophotometer Facility
Sample Description,"HOSERLab master pyroxenes, FTIR data"
Date Added,2016-12-14 03:34:49.9297

Data ID,FTIR_PYX_14
Sample ID,PYX112
Mineral Name,Orthopyroxene
Grain Size,45-90 um
Viewing Geometry,"i=30, e=0"
Material Class,Inosilicate

Wavelength
2000.56,0.14195
2002.307,0.142412
2004.058,0.1424784
2005.812,0.1429989
2007.569,0.143166
2009.329,0.143107
2011.092,0.143824
2012.858,0.144448
2014.627,0.144732
2016.399,0.144911
2018.174,0.145678
2019.952,0.146023
2021.733,0.146205
2023.518,0.145865
2025.305,0.1464753
2027.096,0.147012
2028.89,0.147448
2030.686,0.147825
2032.486,0.148546
2034.289,0.149281
2036.096,0.149884
2037.905,0.150546
2039.718,0.15107
2041.533,0.1513098
2043.352,0.15146
2045.174,0.152221
2047.0,0.152588
2048.828,0.153531
2050.66,0.153688
2052.495,0.153879
2054.333,0.154666
2056.175,0.155335
2058.019,0.1562268
2059.867,0.156882
2061.718,0.156987
2063.573,0.15733
2065.431,0.158143
2067.292,0.158841
2069.156,0.158981
2071.024,0.159249
2072.895,0.160574
2074.769,0.16125
2076.647,0.161239
2078.528,0.16208
2080.412,0.163033
2082.3,0.163783
2084.191,0.164542
2086.085,0.164875
2087.983,0.165877
2089.885,0.166477
2091.789,0.1673
2093.697,0.168428
2095.609,0.168922
2097.524,0.169626
2099.443,0.170248
2101.364,0.170877
2103.29,0.171634
2105.219,0.172037
2107.151,0.172386
2109.087,0.172782
2111.026,0.173184
2112.969,0.173554
2114.915,0.173788
2116.865,0.174648
2118.819,0.175467
2120.776,0.176003
2122.736,0.177318
2124.7,0.17843
2126.668,0.1792786
2128.64,0.180661
2130.614,0.181093
2132.593,0.181437
2134.575,0.18233
2136.561,0.1830298
2138.55,0.184146
2140.544,0.184997
2142.54,0.185977
2144.541,0.187055
2146.545,0.187858
2148.553,0.189086
2150.564,0.189972
2152.579,0.190841
2154.598,0.192021
2156.621,0.19296
2158.647,0.19378
2160.678,0.1950648
2162.712,0.196247
2164.749,0.197297
2166.791,0.198138
2168.836,0.199313
2170.885,0.200757
2172.938,0.201322
2174.995,0.2023275
2177.056,0.203784
2179.12,0.204527
2181.189,0.205304
2183.261,0.206863
2185.337,0.208157
2187.417,0.2088364
2189.501,0.209951
2191.589,0.211038
2193.68,0.21195
2195.776,0.213135
2197.876,0.214229
2199.979,0.215049
2202.087,0.215833
2204.199,0.216771
2206.314,0.217813
2208.434,0.219305
2210.557,0.219984
2212.685,0.221065
2214.817,0.222384
2216.952,0.22329
2219.092,0.224465
2221.236,0.225285
2223.384,0.225565
2225.536,0.22621
2227.692,0.227281
2229.853,0.22839
2232.017,0.229372
2234.186,0.230253
2236.359,0.231046
2238.536,0.231839
2240.717,0.23315
2242.902,0.234187
2245.092,0.234583
2247.285,0.235505
2249.483,0.236397
2251.686,0.23751
2253.892,0.238932
2256.103,0.2402477
2258.318,0.240698
2260.537,0.24154
2262.761,0.242703
2264.989,0.243841
2267.221,0.244563
2269.458,0.245643
2271.699,0.246838
2273.944,0.247665
2276.194,0.248546
2278.448,0.249415
2280.707,0.25008
2282.97,0.250761
2285.237,0.2513276
2287.509,0.252128
2289.786,0.252585
2292.067,0.2532
2294.352,0.2543117
2296.642,0.254862
2298.936,0.2555719
2301.235,0.256437
2303.539,0.257142
2305.847,0.257781
2308.159,0.258192
2310.476,0.258526
2312.798,0.259239
2315.124,0.260228
2317.455,0.261008
2319.791,0.261706
2322.131,0.262631
2324.476,0.2635703
2326.826,0.264828
2329.18,0.265709
2331.54,0.266922
2333.903,0.268364
2336.272,0.269297
2338.645,0.270271
2341.023,0.271591
2343.406,0.27264
2345.794,0.273291
2348.186,0.274583
2350.583,0.275907
2352.986,0.276759
2355.393,0.278144
2357.804,0.278693
2360.221,0.279871
2362.643,0.281054
2365.069,0.281586
2367.501,0.282253
2369.937,0.283253
2372.379,0.2835487
2374.825,0.284309
2377.276,0.284992
2379.733,0.285551
2382.194,0.285814
2384.661,0.286425
2387.132,0.287316
2389.609,0.288211
2392.09,0.288898
2394.577,0.289512
2397.069,0.290679
2399.566,0.291553
2402.068,0.292376
2404.575,0.293226
2407.088,0.294437
2409.606,0.29532
2412.128,0.296036
2414.657,0.2967526
2417.19,0.297553
2419.729,0.298226
2422.272,0.298787
2424.822,0.299713
2427.376,0.300031
2429.936,0.300612
2432.501,0.301316
2435.072,0.301926
2437.648,0.302368
2440.229,0.302722
2442.816,0.303543
2445.408,0.304083
2448.006,0.304616
2450.609,0.3051927
2453.217,0.305685
2455.831,0.306221
2458.451,0.306386
2461.076,0.306988
2463.707,0.307586
2466.343,0.3083601
2468.985,0.308785
2471.632,0.309791
2474.285,0.310253
2476.944,0.310699
2479.608,0.310756
2482.278,0.311249
2484.954,0.312126
2487.636,0.312471
2490.323,0.3131632
2493.016,0.313298
2495.715,0.313585
2498.419,0.314058
2501.129,0.314521
2503.845,0.315053
2506.567,0.315492
2509.295,0.315772
2512.029,0.316225
2514.769,0.316683
2517.514,0.317128
2520.266,0.317421
2523.023,0.31779
2525.787,0.317668
2528.556,0.318482
2531.331,0.319107
2534.113,0.3197786
2536.9,0.319952
2539.694,0.320615
2542.494,0.321022
2545.3,0.321186
2548.112,0.321431
2550.93,0.322804
2553.754,0.32237
2556.585,0.321727
2559.421,0.323102
2562.264,0.324621
2565.113,0.323116
2567.969,0.32394
2570.831,0.324126
2573.699,0.324815
2576.573,0.32451
2579.454,0.324762
2582.342,0.326388
2585.235,0.326489
2588.135,0.32656
2591.042,0.327104
2593.955,0.33397
2596.874,0.327633
2599.8,0.326682
2602.733,0.32901
2605.672,0.329872
2608.618,0.327645
2611.57,0.326413
2614.529,0.3288449
2617.495,0.33083
2620.467,0.3297587
2623.446,0.3280155
2626.431,0.330046
2629.424,0.331629
2632.423,0.330136
2635.429,0.328742
2638.442,0.3289637
2641.461,0.329246
2644.488,0.33027
2647.521,0.330014
2650.561,0.3304
2653.609,0.331265
2656.663,0.33077
2659.724,0.33077
2662.792,0.332182
2665.867,0.336247
2668.949,0.336575
2672.038,0.3326412
2675.135,0.332016
2678.238,0.330558
2681.349,0.323165
2684.467,0.317603
2687.591,0.309651
2690.724,0.302372
2693.863,0.300109
2697.01,0.291935
2700.164,0.288219
2703.325,0.283188
2706.494,0.277947
2709.67,0.277471
2712.853,0.261493
2716.044,0.240701
2719.242,0.228777
2722.448,0.223986
2725.661,0.213789
2728.882,0.195157
2732.111,0.184317
2735.347,0.18277
2738.59,0.180068
2741.841,0.173629
2745.1,0.1657885
2748.367,0.1654793
2751.641,0.164972
2754.923,0.165109
2758.213,0.1616
2761.51,0.160824
2764.816,0.1599946
2768.129,0.160039
2771.45,0.160932
2774.779,0.161252
2778.116,0.161433
2781.461,0.161531
2784.814,0.1616082
2788.175,0.161051
2791.544,0.16104
2794.922,0.160475
2798.307,0.160114
2801.7,0.15841
2805.102,0.155807
2808.512,0.156074
2811.93,0.156144
2815.356,0.156569
2818.791,0.157395
2822.233,0.157822
2825.685,0.158669
2829.144,0.158463
2832.612,0.157538
2836.089,0.156365
2839.574,0.154818
2843.067,0.15423
2846.569,0.153749
2850.08,0.153449
2853.599,0.15345
2857.127,0.153372
2860.664,0.155013
2864.209,0.155449
2867.763,0.155423
2871.325,0.155396
2874.897,0.155414
2878.477,0.15529
2882.066,0.155208
2885.664,0.154608
2889.271,0.155431
2892.887,0.155355
2896.512,0.153651
2900.146,0.152736
2903.789,0.1524222
2907.441,0.152243
2911.103,0.152034
2914.773,0.15247
2918.453,0.1532752
2922.142,0.152223
2925.84,0.151162
2929.547,0.150931
2933.264,0.151332
2936.99,0.152486
2940.726,0.152913
2944.471,0.153691
2948.225,0.156066
2951.989,0.155761
2955.763,0.156819
2959.546,0.156406
2963.339,0.156825
2967.141,0.157939
2970.953,0.158347
2974.775,0.160762
2978.607,0.161334
2982.448,0.1607
2986.3,0.1613808
2990.161,0.162937
2994.032,0.163606
2997.913,0.163807
3001.804,0.165333
3005.705,0.165866
3009.616,0.165983
3013.538,0.167404
3017.469,0.1679267
3021.411,0.168226
3025.363,0.169189
3029.325,0.171662
3033.298,0.174006
3037.281,0.172192
3041.274,0.172849
3045.278,0.174228
3049.292,0.174131
3053.317,0.173945
3057.352,0.1746337
3061.398,0.176195
3065.455,0.177869
3069.522,0.176996
3073.6,0.1769312
3077.689,0.1784045
3081.788,0.179097
3085.899,0.179709
3090.02,0.1807
3094.153,0.180559
3098.296,0.181531
3102.45,0.182757
3106.616,0.181935
3110.792,0.1825011
3114.98,0.183459
3119.179,0.184362
3123.389,0.1854648
3127.611,0.186089
3131.844,0.187129
3136.088,0.188041
3140.344,0.188891
3144.611,0.190002
3148.89,0.190835
3153.18,0.19226
3157.482,0.1935629
3161.796,0.194487
3166.121,0.195586
3170.458,0.196557
3174.807,0.197553
3179.168,0.199939
3183.541,0.200889
3187.926,0.200264
3192.323,0.202088
3196.731,0.203183
3201.152,0.202956
3205.585,0.20399
3210.031,0.204624
3214.488,0.207987
3218.958,0.209131
3223.441,0.208052
3227.936,0.208652
3232.443,0.208484
3236.963,0.209257
3241.495,0.209457
3246.04,0.211223
3250.598,0.212562
3255.168,0.2146879
3259.751,0.214646
3264.347,0.212867
3268.956,0.214264
3273.578,0.214294
3278.213,0.213998
3282.861,0.215284
3287.522,0.216108
3292.196,0.2169048
3296.884,0.2185058
3301.585,0.217657
3306.299,0.218439
3311.026,0.2181
3315.767,0.218631
3320.522,0.219093
3325.29,0.221476
3330.072,0.223364
3334.867,0.221268
3339.676,0.220563
3344.499,0.221343
3349.336,0.222323
3354.187,0.2220776
3359.052,0.220922
3363.931,0.22225
3368.824,0.222779
3373.731,0.222125
3378.652,0.221498
3383.588,0.221885
3388.538,0.222659
3393.502,0.223242
3398.481,0.224556
3403.475,0.225493
3408.483,0.2256594
3413.506,0.224211
3418.543,0.22449
3423.596,0.226321
3428.663,0.226481
3433.745,0.227002
3438.842,0.229396
3443.954,0.23137
3449.082,0.229123
3454.224,0.228715
3459.382,0.229042
3464.556,0.229517
3469.744,0.228857
3474.948,0.228402
3480.168,0.228412
3485.403,0.2291
3490.654,0.231564
3495.921,0.23105
3501.204,0.230221
3506.502,0.230722
3511.817,0.230997
3517.147,0.231201
3522.494,0.232096
3527.857,0.2321518
3533.236,0.234231
3538.631,0.23443
3544.043,0.233476
3549.471,0.233606
3554.916,0.233693
3560.378,0.234023
3565.856,0.2344933
3571.351,0.235322
3576.863,0.234976
3582.392,0.235624
3587.938,0.236496
3593.501,0.236321
3599.082,0.236823
3604.679,0.235857
3610.294,0.235838
3615.926,0.237021
3621.576,0.236731
3627.244,0.2367
3632.929,0.2369
3638.632,0.237087
3644.353,0.2374564
3650.091,0.238388
3655.848,0.238186
3661.623,0.2377271
3667.416,0.237871
3673.227,0.2379763
3679.057,0.239302
3684.905,0.239998
3690.771,0.239632
3696.656,0.239569
3702.56,0.2395558
3708.483,0.239993
3714.425,0.240443
3720.385,0.240938
3726.365,0.241402
3732.364,0.241999
3738.382,0.242772
3744.419,0.244065
3750.476,0.244681
3756.553,0.244952
3762.649,0.245235
3768.764,0.245753
3774.9,0.246565
3781.056,0.247122
3787.231,0.2477888
3793.427,0.2484577
3799.643,0.249013
3805.879,0.249794
3812.135,0.25052
3818.412,0.251021
3824.71,0.251533
3831.029,0.251973
3837.368,0.252822
3843.728,0.253825
3850.109,0.2548039
3856.512,0.255865
3862.935,0.2568754
3869.38,0.2578527
3875.846,0.2585477
3882.334,0.259706
3888.844,0.2608897
3895.375,0.262077
3901.929,0.2627763
3908.504,0.263612
3915.101,0.264415
3921.721,0.265148
3928.363,0.266132
3935.027,0.267203
3941.714,0.268582
3948.423,0.269904
3955.156,0.271264
3961.911,0.27302
3968.689,0.274989
3975.491,0.276652
3982.315,0.278416
3989.163,0.279416
3996.035,0.28057
4002.93,0.282117
4009.849,0.283977
4016.791,0.285706
4023.758,0.286826
4030.749,0.288228
4037.764,0.289958
4044.804,0.291698
4051.867,0.293972
4058.956,0.29578
4066.069,0.298035
4073.207,0.300184
4080.371,0.302426
4087.559,0.305082
4094.773,0.307591
4102.012,0.31011
4109.276,0.312649
4116.566,0.315023
4123.882,0.318106
4131.224,0.321176
4138.592,0.324161
4145.987,0.327316
4153.407,0.3304521
4160.854,0.33388
4168.328,0.337256
4175.829,0.340204
4183.356,0.343541
4190.911,0.34806
4198.493,0.35584
4206.102,0.370444
4213.739,0.39035
4221.404,0.410651
4229.096,0.427305
4236.816,0.4375903
4244.565,0.437999
4252.341,0.422209
4260.146,0.4156258
4267.98,0.436211
4275.843,0.443492
4283.734,0.446203
4291.655,0.449666
4299.604,0.450133
4307.583,0.450557
4315.592,0.447205
4323.631,0.444897
4331.699,0.443786
4339.797,0.442255
4347.926,0.442967
4356.085,0.445513
4364.275,0.448645
4372.495,0.452709
4380.746,0.457226
4389.029,0.463038
4397.342,0.468844
4405.687,0.474235
4414.064,0.4798339
4422.472,0.485164
4430.913,0.490043
4439.386,0.4947076
4447.891,0.498544
4456.428,0.502527
4464.998,0.506357
4473.602,0.510058
4482.238,0.513833
4490.908,0.516733
4499.611,0.519788
4508.347,0.523478
4517.118,0.526364
4525.923,0.529598
4534.762,0.532992
4543.635,0.536445
4552.543,0.540118
4561.487,0.543688
4570.465,0.546742
4579.478,0.550384
4588.527,0.554132
4597.612,0.557414
4606.732,0.5617351
4615.889,0.564475
4625.082,0.568033
4634.312,0.570937
4643.578,0.574412
4652.882,0.577819
4662.223,0.581526
4671.601,0.586119
4681.017,0.5907809
4690.471,0.592484
4699.962,0.596672
4709.493,0.601412
4719.062,0.604827
4728.669,0.608872
4738.316,0.613045
4748.002,0.616946
4757.728,0.621326
4767.494,0.625141
4777.299,0.629257
4787.145,0.633484
4797.032,0.636522
4806.959,0.6396001
4816.927,0.643826
4826.937,0.645899
4836.988,0.647683
4847.081,0.651122
4857.216,0.654683
4867.393,0.6572
4877.613,0.658914
4887.876,0.661797
4898.182,0.666494
4908.532,0.669681
4918.925,0.6714433
4929.362,0.675194
4939.844,0.678526
4950.37,0.682039
4960.941,0.685097
4971.556,0.686742
4982.218,0.689605
4992.925,0.69178
5003.678,0.695112
5014.477,0.699814
5025.323,0.703193
5036.216,0.70402
5047.156,0.706499
5058.143,0.708864
5069.179,0.711265
5080.262,0.716153
5091.394,0.718103
5102.574,0.719935
5113.804,0.722909
5125.083,0.725292
5136.412,0.730024
5147.791,0.736222
5159.22,0.735096
5170.7,0.737587
5182.231,0.740709
5193.814,0.746415
5205.448,0.753127
5217.134,0.755276
5228.873,0.755027
5240.665,0.759634
5252.51,0.761109
5264.408,0.76451
5276.36,0.769618
5288.367,0.774994
5300.428,0.776012
5312.544,0.7768982
5324.715,0.780058
5336.942,0.785066
5349.226,0.796376
5361.566,0.792334
5373.962,0.792012
5386.417,0.7942073
5398.928,0.796861
5411.498,0.805518
5424.127,0.8136586
5436.814,0.807851
5449.561,0.81218
5462.368,0.825385
5475.234,0.831591
5488.162,0.831574
5501.15,0.832786
5514.2,0.851281
5527.312,0.871453
5540.486,0.876259
5553.723,0.770281
5567.023,0.5892542
5580.387,0.634378
5593.815,0.716471
5607.307,0.745572
5620.865,0.767482
5634.489,0.78217
5648.178,0.786317
5661.934,0.788764
5675.757,0.79861
5689.647,0.803615
5703.606,0.809615
5717.633,0.817206
5731.729,0.82144
5745.894,0.827213
5760.13,0.837121
5774.436,0.83998
5788.813,0.836124
5803.262,0.842943
5817.782,0.859922
5832.376,0.85879
5847.043,0.856558
5861.783,0.868026
5876.598,0.87968
5891.488,0.879426
5906.454,0.870409
5921.495,0.877194
5936.613,0.888087
5951.809,0.881796
5967.082,0.8854
5982.433,0.886651
5997.864,0.8852481
6013.374,0.8871968
6028.964,0.889076
6044.636,0.902022
6060.389,0.898089
6076.224,0.897077
6092.141,0.895854
6108.143,0.9059069
6124.228,0.900535
6140.398,0.902474
6156.654,0.9060291
6172.996,0.908396
6189.424,0.909148
6205.94,0.908732
6222.544,0.909836
6239.237,0.910558
6256.02,0.912285
6272.893,0.91466
6289.858,0.914566
6306.914,0.916114
6324.062,0.919995
6341.304,0.924
6358.64,0.926284
6376.071,0.926341
6393.598,0.9275
6411.221,0.935719
6428.941,0.931153
6446.759,0.9311751
6464.676,0.93445
6482.693,0.939923
6500.81,0.937487
6519.029,0.939751
6537.35,0.940074
6555.774,0.943075
6574.302,0.945776
6592.934,0.94681
6611.673,0.949505
6630.518,0.952838
6649.47,0.948961
6668.532,0.952175
6687.702,0.952896
6706.983,0.956868
6726.375,0.955706
6745.879,0.956599
6765.497,0.959994
6785.229,0.961407
6805.076,0.960558
6825.039,0.962226
6845.12,0.964507
6865.319,0.964972
6885.637,0.9651042
6906.076,0.966416
6926.636,0.966821
6947.319,0.9686364
6968.125,0.969727
6989.057,0.971744
7010.114,0.972543
7031.298,0.974475
7052.611,0.975707
7074.052,0.9761039
7095.625,0.977124
7117.329,0.97897
7139.166,0.980576
7161.137,0.98121
7183.244,0.9822732
7205.487,0.983441
7227.869,0.984143
7250.39,0.985736
7273.051,0.9867609
7295.854,0.987831
7318.8,0.988929
7341.891,0.989868
7365.128,0.991059
7388.512,0.992922
7412.045,0.994564
7435.728,0.995516
7459.562,0.99655
7483.55,0.9975089
7507.692,0.998416
7531.99,0.99915
7556.446,0.9999856
7581.061,0.010006
7605.837,0.0100082
7630.774,0.0100118
7655.876,0.0100162
7681.143,0.0100266
7706.577,0.0100331
7732.18,0.0100366
7757.953,0.0100477
7783.899,0.0100575
7810.018,0.0100665
7836.313,0.010081
7862.786,0.0100956
7889.437,0.0101106
7916.27,0.0101194
7943.285,0.0101288
7970.485,0.010145
7997.872,0.0101571
8025.448,0.0101666
8053.214,0.0101777
8081.173,0.0101865
8109.326,0.0101939
8137.676,0.0102056
8166.224,0.0102129
8194.973,0.0102247
8223.925,0.0102338
8253.082,0.0102421
8282.446,0.0102545
8312.02,0.01026524
8341.805,0.0102772
8371.804,0.0102859
8402.02,0.0102939
8432.454,0.0103021
8463.109,0.0103092
8493.988,0.0103163
8525.092,0.0103222
8556.425,0.0103277
8587.989,0.0103338
8619.786,0.0103372
8651.819,0.01034137
8684.091,0.0103485
8716.604,0.010356
8749.361,0.0103625
8782.365,0.0103699
8815.619,0.0103805
8849.125,0.0103904
8882.887,0.0103949
8916.907,0.0104008
8951.188,0.0104061
8985.733,0.0104087
9020.546,0.0104067
9055.629,0.0104003
9090.986,0.0103981
9126.62,0.0103942
9162.534,0.0103804
9198.731,0.0103708
9235.215,0.0103668
9271.99,0.0103629
9309.058,0.0103614
9346.423,0.0103609
9384.089,0.010359
9422.06,0.0103613
9460.339,0.010363
9498.929,0.0103677
9537.836,0.0103725
9577.062,0.0103786
9616.612,0.0103817
9656.49,0.0103854
9696.699,0.0103918
9737.244,0.0103945
9778.129,0.0103949
9819.359,0.0103974
9860.938,0.0104018
9902.869,0.0104045
9945.159,0.0104023
9987.811,0.0103977
10030.83,0.0103992
10074.221,0.010399
10117.988,0.0104
10162.137,0.0104053
10206.672,0.0104099
10251.6,0.0104141
10296.924,0.0104174
10342.65,0.0104236
10388.784,0.0104293
10435.331,0.0104319
10482.296,0.0104296
10529.686,0.0104301
10577.505,0.0104345
10625.761,0.0104372
10674.458,0.0104366
10723.604,0.0104373
10773.203,0.0104416
10823.264,0.0104432
10873.791,0.0104455
10924.791,0.0104478
10976.272,0.0104541
11028.24,0.01046
11080.702,0.0104587
11133.665,0.0104529
11187.137,0.0104453
11241.124,0.0104411
11295.634,0.0104383
11350.675,0.0104361
11406.254,0.0104296
11462.38,0.0104225
11519.06,0.0104191
11576.304,0.0104159
11634.118,0.0104125
11692.513,0.0104102
11751.496,0.0104102
11811.077,0.0104085
11871.265,0.0104132
11932.068,0.010418
11993.497,0.0104163
12055.562,0.0104207
12118.271,0.0104245
12181.636,0.0104243
12245.667,0.0104228
12310.373,0.0104192
12375.767,0.0104142
12441.859,0.0104068
12508.659,0.0104067
12576.18,0.0104059
12644.434,0.0103988
12713.432,0.010398
12783.187,0.010398
12853.71,0.010398
12925.016,0.0103987
12997.116,0.0104034
13070.025,0.0104091
13143.756,0.0104118
13218.322,0.0104127
13293.74,0.0104139
13370.021,0.0104157
13447.183,0.0104134
13525.24,0.0104078
13604.208,0.0103995
13684.103,0.0103927
13764.941,0.0103773
13846.739,0.0103657
13929.515,0.010364
14013.285,0.0103564
14098.068,0.0103496
14183.883,0.0103385
14270.749,0.0103286
14358.684,0.0103262
14447.709,0.0103224
14537.844,0.0103044
14629.109,0.0102924
14721.528,0.0102801
14815.121,0.0102753
14909.91,0.0102265
15005.92,0.0101981
15103.173,0.0101985
15201.695,0.0101524
15301.509,0.0100226
15402.642,0.98569
15505.12,0.963953
15608.97,0.938897
15714.22,0.890499
15820.897,0.830912
15929.033,0.7830006
15965.407,0.760668