File: csv_library/FTIR_MTL_11_1.csv
Database of Origin,University of Winnipeg Spectrophotometer Facility
Sample Description,"METALS AND ""IDES"" - D and P FTIR Spectra (PSF)"
Date Added,2018-07-23 22:27:54.0657

Data ID,FTIR_MTL_11_1
Sample ID,PRT101
Mineral Name,Pyrite
Grain Size,<45 um
Viewing Geometry,i=35/ e=0
Resolution,11-72 nm
Material Class,Sulfide

Wavelength
2001.142,0.135648
2003.474,0.135239
2005.812,0.135559
2008.155,0.135835
2010.504,0.135507
2012.858,0.135784
2015.217,0.136514
2017.582,0.136665
2019.952,0.137194
2022.328,0.136235
2024.709,0.135954
2027.096,0.136355
2029.488,0.136419
2031.886,0.136842
2034.289,0.136894
2036.698,0.137397
2039.113,0.138209
2041.533,0.138466
2043.959,0.1382316
2046.391,0.138359
2048.828,0.138995
2051.271,0.139026
2053.72,0.138909
2056.175,0.139243
2058.635,0.139723
2061.101,0.139601
2063.573,0.140069
2066.051,0.140486
2068.534,0.140596
2071.024,0.140854
2073.519,0.140889
2076.02,0.140633
2078.528,0.141279
2081.041,0.141167
2083.56,0.141057
2086.085,0.141376
2088.617,0.142048
2091.154,0.142055
2093.697,0.142249
2096.247,0.142803
2098.803,0.142471
2101.364,0.141918
2103.932,0.141686
2106.506,0.141872
2109.087,0.1410101
2111.673,0.140557
2114.266,0.139864
2116.865,0.14079
2119.471,0.141588
2122.082,0.14138
2124.7,0.141676
2127.325,0.142492
2129.956,0.143151
2132.593,0.142492
2135.237,0.142532
2137.887,0.142469
2140.544,0.143137
2143.207,0.143339
2145.876,0.1428846
2148.553,0.14392
2151.235,0.1441119
2153.925,0.144093
2156.621,0.144638
2159.324,0.145642
2162.033,0.146085
2164.749,0.146397
2167.472,0.146745
2170.202,0.147296
2172.938,0.14753
2175.682,0.14789
2178.432,0.148331
2181.189,0.148642
2183.952,0.148904
2186.723,0.148888
2189.501,0.149448
2192.285,0.149383
2195.077,0.149891
2197.876,0.149971
2200.682,0.149928
2203.494,0.150686
2206.314,0.150432
2209.141,0.15071
2211.975,0.150792
2214.817,0.151148
2217.665,0.151966
2220.521,0.1517412
2223.384,0.15162
2226.254,0.151897
2229.132,0.15242
2232.017,0.153051
2234.91,0.1533946
2237.809,0.153007
2240.717,0.153308
2243.631,0.154045
2246.554,0.154211
2249.483,0.154705
2252.421,0.15536
2255.365,0.155521
2258.318,0.1559516
2261.278,0.155837
2264.246,0.156265
2267.221,0.156206
2270.204,0.15639
2273.195,0.156303
2276.194,0.15675
2279.201,0.15721
2282.215,0.157634
2285.237,0.157876
2288.268,0.158066
2291.306,0.15888
2294.352,0.158812
2297.406,0.158955
2300.468,0.159209
2303.539,0.159874
2306.617,0.1603188
2309.703,0.1606244
2312.798,0.160442
2315.901,0.1610589
2319.012,0.161176
2322.131,0.161558
2325.259,0.161909
2328.395,0.162324
2331.54,0.16253
2334.692,0.162777
2337.854,0.163019
2341.023,0.163039
2344.201,0.1634274
2347.388,0.1637924
2350.583,0.163766
2353.787,0.164213
2357.0,0.164535
2360.221,0.164383
2363.451,0.164608
2366.69,0.165373
2369.937,0.1655621
2373.194,0.165628
2376.459,0.166255
2379.733,0.166088
2383.016,0.166166
2386.308,0.166495
2389.609,0.167214
2392.919,0.16721
2396.238,0.16732
2399.566,0.16745
2402.903,0.167364
2406.25,0.167919
2409.606,0.168204
2412.971,0.168079
2416.345,0.168052
2419.729,0.168735
2423.122,0.168908
2426.524,0.169414
2429.936,0.169474
2433.358,0.16989
2436.789,0.170305
2440.229,0.170138
2443.679,0.170798
2447.139,0.170955
2450.609,0.171509
2454.088,0.171904
2457.577,0.172233
2461.076,0.17224
2464.585,0.172345
2468.104,0.172411
2471.632,0.173124
2475.171,0.173503
2478.72,0.173961
2482.278,0.173899
2485.847,0.174319
2489.427,0.174909
2493.016,0.175047
2496.615,0.175548
2500.225,0.176183
2503.845,0.176321
2507.476,0.17624
2511.117,0.176944
2514.769,0.177193
2518.431,0.177359
2522.103,0.1780512
2525.787,0.178012
2529.48,0.178634
2533.185,0.180266
2536.9,0.180406
2540.627,0.180492
2544.364,0.181568
2548.112,0.181549
2551.87,0.183112
2555.64,0.180205
2559.421,0.183872
2563.213,0.18916
2567.016,0.1836
2570.831,0.185454
2574.656,0.1873832
2578.493,0.184522
2582.342,0.188668
2586.201,0.188985
2590.072,0.185847
2593.955,0.197076
2597.849,0.1875
2601.755,0.18793
2605.672,0.193562
2609.601,0.187774
2613.542,0.186357
2617.495,0.193941
2621.459,0.188962
2625.435,0.187452
2629.424,0.193485
2633.424,0.190852
2637.437,0.186023
2641.461,0.187321
2645.498,0.189349
2649.547,0.186947
2653.609,0.190912
2657.682,0.190144
2661.768,0.19257
2665.867,0.203754
2669.978,0.204627
2674.102,0.196366
2678.238,0.20206
2682.387,0.191552
2686.549,0.194823
2690.724,0.191622
2694.911,0.198567
2699.112,0.190532
2703.325,0.189297
2707.552,0.187695
2711.791,0.189376
2716.044,0.175458
2720.31,0.180434
2724.589,0.173024
2728.882,0.158631
2733.188,0.152951
2737.508,0.148686
2741.841,0.147603
2746.188,0.138152
2750.549,0.135229
2754.923,0.133888
2759.311,0.130262
2763.713,0.130288
2768.129,0.129894
2772.559,0.130374
2777.003,0.130995
2781.461,0.131218
2785.934,0.131398
2790.42,0.131106
2794.922,0.1293167
2799.437,0.128331
2803.967,0.126902
2808.512,0.125155
2813.071,0.123469
2817.645,0.121833
2822.233,0.120525
2826.837,0.120043
2831.455,0.118812
2836.089,0.1178391
2840.737,0.1163332
2845.401,0.11557
2850.08,0.114314
2854.774,0.113142
2859.484,0.111486
2864.209,0.110739
2868.949,0.109247
2873.705,0.107894
2878.477,0.10707
2883.265,0.1057785
2888.068,0.104662
2892.887,0.103
2897.723,0.1005457
2902.574,0.09912206
2907.441,0.09753429
2912.325,0.09613949
2917.225,0.09631851
2922.142,0.09491107
2927.075,0.09274336
2932.024,0.09173243
2936.99,0.09178581
2941.973,0.09165311
2946.973,0.09286993
2951.989,0.09151738
2957.023,0.09182822
2962.073,0.08964189
2967.141,0.09024294
2972.226,0.09090768
2977.328,0.09358679
2982.448,0.09140372
2987.586,0.09085452
2992.74,0.09260051
2997.913,0.09228009
3003.103,0.09415561
3008.312,0.0924411
3013.538,0.09361669
3018.782,0.09329356
3024.044,0.09360641
3029.325,0.09606001
3034.624,0.09785783
3039.942,0.09552845
3045.278,0.09756631
3050.632,0.09585791
3056.006,0.09605149
3061.398,0.09734124
3066.809,0.09927905
3072.239,0.09746054
3077.689,0.09819353
3083.157,0.09884416
3088.645,0.100225
3094.153,0.09949032
3099.679,0.101872
3105.226,0.102122
3110.792,0.102178
3116.378,0.102647
3121.985,0.103515
3127.611,0.104278
3133.257,0.104951
3138.924,0.106047
3144.611,0.107143
3150.319,0.107834
3156.047,0.10842
3161.796,0.109621
3167.566,0.110623
3173.356,0.111283
3179.168,0.113943
3185.001,0.114292
3190.856,0.114315
3196.731,0.116229
3202.629,0.1158283
3208.548,0.116713
3214.488,0.121202
3220.451,0.121461
3226.436,0.120263
3232.443,0.119679
3238.472,0.120523
3244.523,0.122147
3250.598,0.123963
3256.694,0.126567
3262.814,0.123676
3268.956,0.125137
3275.122,0.124602
3281.31,0.125514
3287.522,0.127337
3293.757,0.129152
3300.016,0.129729
3306.299,0.130191
3312.605,0.130241
3318.936,0.130989
3325.29,0.133484
3331.669,0.134991
3338.072,0.131768
3344.499,0.133165
3350.952,0.13483
3357.429,0.133725
3363.931,0.135398
3370.458,0.136446
3377.01,0.1354393
3383.588,0.135954
3390.191,0.137134
3396.82,0.138807
3403.475,0.140254
3410.156,0.139905
3416.862,0.138269
3423.596,0.14044
3430.355,0.1401109
3437.141,0.14484
3443.954,0.150067
3450.794,0.148124
3457.661,0.148898
3464.556,0.150791
3471.477,0.150756
3478.426,0.1516688
3485.403,0.152781
3492.408,0.155999
3499.441,0.153915
3506.502,0.15427
3513.592,0.155348
3520.71,0.158951
3527.857,0.160752
3535.032,0.164367
3542.237,0.163414
3549.471,0.163825
3556.735,0.1650635
3564.028,0.166238
3571.351,0.167498
3578.704,0.167894
3586.088,0.170253
3593.501,0.17056
3600.946,0.171428
3608.421,0.171159
3615.926,0.173137
3623.463,0.173261
3631.032,0.17394
3638.632,0.174887
3646.263,0.175939
3653.927,0.177517
3661.623,0.177595
3669.351,0.178366
3677.111,0.179542
3684.905,0.181106
3692.731,0.181074
3700.59,0.181861
3708.483,0.1825693
3716.409,0.183685
3724.37,0.184482
3732.364,0.185834
3740.392,0.1868017
3748.455,0.188435
3756.553,0.188505
3764.685,0.189266
3772.853,0.190272
3781.056,0.1913068
3789.294,0.192311
3797.568,0.19335
3805.879,0.195034
3814.225,0.195936
3822.609,0.197214
3831.029,0.198239
3839.486,0.199692
3847.98,0.2006967
3856.512,0.201935
3865.081,0.203466
3873.689,0.2047238
3882.334,0.205923
3891.019,0.207522
3899.742,0.208751
3908.504,0.209923
3917.305,0.211243
3926.146,0.212841
3935.027,0.214207
3943.948,0.215716
3952.909,0.2176242
3961.911,0.219643
3970.954,0.221815
3980.038,0.223744
3989.163,0.22531
3998.33,0.22652
4007.54,0.228035
4016.791,0.229362
4026.086,0.230489
4035.423,0.232141
4044.804,0.234445
4054.228,0.235984
4063.695,0.23783
4073.207,0.240004
4082.764,0.241854
4092.365,0.244609
4102.012,0.246729
4111.703,0.249185
4121.441,0.251233
4131.224,0.254071
4141.054,0.256439
4150.931,0.258803
4160.854,0.261812
4170.826,0.2645689
4180.844,0.2667081
4190.911,0.270903
4201.026,0.280945
4211.19,0.302046
4221.404,0.327332
4231.666,0.34872
4241.979,0.355762
4252.341,0.336623
4262.754,0.331348
4273.219,0.349838
4283.734,0.350759
4294.301,0.35138
4304.92,0.348247
4315.592,0.341749
4326.317,0.33594
4337.095,0.331281
4347.926,0.329279
4358.811,0.32985
4369.751,0.330697
4380.746,0.33281
4391.796,0.337115
4402.902,0.341129
4414.064,0.344642
4425.282,0.3479484
4436.558,0.351658
4447.891,0.355226
4459.281,0.359159
4470.73,0.362976
4482.238,0.366698
4493.805,0.370312
4505.431,0.373847
4517.118,0.377637
4528.865,0.381511
4540.674,0.3856
4552.543,0.389597
4564.475,0.393685
4576.47,0.397092
4588.527,0.40084
4600.648,0.4048253
4612.833,0.408979
4625.082,0.412985
4637.397,0.417165
4649.777,0.421545
4662.223,0.425943
4674.735,0.430168
4687.315,0.43426
4699.962,0.438441
4712.678,0.442609
4725.463,0.447264
4738.316,0.4512741
4751.24,0.455552
4764.234,0.460079
4777.299,0.463919
4790.436,0.468737
4803.645,0.4721464
4816.927,0.476526
4830.283,0.480645
4843.712,0.486249
4857.216,0.488713
4870.795,0.492575
4884.451,0.496272
4898.182,0.501259
4911.991,0.503811
4925.878,0.507403
4939.844,0.511267
4953.888,0.517497
4968.013,0.519423
4982.218,0.522645
4996.504,0.526387
5010.872,0.531811
5025.323,0.539076
5039.857,0.538283
5054.475,0.5417492
5069.179,0.545648
5083.967,0.553996
5098.842,0.554108
5113.804,0.558449
5128.854,0.561868
5143.992,0.573762
5159.22,0.570768
5174.538,0.573406
5189.947,0.578782
5205.448,0.591318
5221.041,0.5901
5236.728,0.594055
5252.51,0.593931
5268.386,0.599091
5284.358,0.607387
5300.428,0.609162
5316.595,0.609087
5332.86,0.612629
5349.226,0.637703
5365.692,0.623972
5382.259,0.625475
5398.928,0.6290939
5415.701,0.652864
5432.579,0.646784
5449.561,0.647742
5466.65,0.672099
5483.846,0.6657456
5501.15,0.661709
5518.564,0.6796558
5536.087,0.690564
5553.723,0.738752
5571.47,0.62953
5589.332,0.601705
5607.307,0.619871
5625.399,0.633059
5643.607,0.657683
5661.934,0.649068
5680.379,0.660283
5698.945,0.665797
5717.633,0.685894
5736.443,0.682379
5755.377,0.691838
5774.436,0.696927
5793.621,0.682541
5812.934,0.7095861
5832.376,0.713041
5851.948,0.7083588
5871.652,0.735353
5891.488,0.743072
5911.459,0.718397
5931.565,0.752539
5951.809,0.73212
5972.19,0.743565
5992.711,0.74301
6013.374,0.738099
6034.179,0.751969
6055.129,0.77435
6076.224,0.761575
6097.466,0.758002
6118.857,0.7650222
6140.398,0.760543
6162.091,0.76661
6183.938,0.773621
6205.94,0.763895
6228.099,0.765927
6250.416,0.767312
6272.893,0.772369
6295.533,0.773826
6318.336,0.778496
6341.304,0.799249
6364.44,0.801096
6387.745,0.800095
6411.221,0.842894
6434.869,0.812717
6458.693,0.81434
6482.693,0.8513827
6506.872,0.828924
6531.231,0.825768
6555.774,0.8444174
6580.501,0.849669
6605.415,0.839409
6630.518,0.86701
6655.812,0.834637
6681.3,0.840514
6706.983,0.850685
6732.864,0.835498
6758.945,0.8420819
6785.229,0.859695
6811.718,0.845808
6838.413,0.8546
6865.319,0.865963
6892.437,0.851317
6919.769,0.84789
6947.319,0.861496
6975.089,0.859776
7003.081,0.860164
7031.298,0.872775
7059.743,0.866399
7088.419,0.86477
7117.329,0.870494
7146.475,0.881111
7175.86,0.876593
7205.487,0.8798756
7235.36,0.877278
7265.481,0.88602
7295.854,0.883621
7326.481,0.891629
7357.366,0.88822
7388.512,0.889338
7419.922,0.890701
7451.601,0.900007
7483.55,0.897271
7515.774,0.897318
7548.277,0.900231
7581.061,0.904412
7614.131,0.904784
7647.491,0.905213
7681.143,0.907204
7715.093,0.909103
7749.343,0.911363
7783.899,0.912525
7818.764,0.914267
7853.942,0.917195
7889.437,0.91873
7925.254,0.921054
7961.398,0.922263
7997.872,0.924018
8034.682,0.926149
8071.832,0.927341
8109.326,0.929312
8147.169,0.930977
8185.368,0.932515
8223.925,0.934005
8262.847,0.935102
8302.139,0.936775
8341.805,0.938341
8381.852,0.939758
8422.285,0.941343
8463.109,0.942629
8504.331,0.944254
8545.955,0.945597
8587.989,0.947084
8630.437,0.948457
8673.307,0.949905
8716.604,0.951487
8760.335,0.952666
8804.507,0.954508
8849.125,0.9556669
8894.198,0.957058
8939.732,0.958444
8985.733,0.959524
9032.21,0.960254
9079.17,0.960712
9126.62,0.961022
9174.568,0.961112
9223.022,0.961513
9271.99,0.961541
9321.48,0.961865
9371.5,0.962599
9422.06,0.962764
9473.167,0.963584
9524.832,0.964356
9577.062,0.964957
9629.868,0.965928
9683.259,0.966355
9737.244,0.967097
9791.834,0.967768
9847.039,0.96881
9902.869,0.969627
9959.336,0.970235
10016.449,0.971209
10074.221,0.972161
10132.662,0.972933
10191.784,0.973568
10251.6,0.974143
10312.121,0.974996
10373.36,0.9757
10435.331,0.976204
10498.045,0.976516
10561.517,0.976947
10625.761,0.977306
10690.79,0.97775
10756.619,0.978007
10823.264,0.978422
10890.738,0.978809
10959.058,0.979091
11028.24,0.979331
11098.301,0.979209
11169.256,0.979224
11241.124,0.9795246
11313.921,0.979593
11387.667,0.979514
11462.38,0.979892
11538.079,0.980182
11614.783,0.980517
11692.513,0.980887
11771.29,0.981304
11851.134,0.981352
11932.068,0.98154
12014.114,0.981494
12097.296,0.981613
12181.636,0.981265
12267.16,0.981511
12353.892,0.981487
12441.859,0.981733
12531.086,0.982078
12621.601,0.982471
12713.432,0.982415
12806.608,0.982902
12901.159,0.983355
12997.116,0.9838629
13094.51,0.98364
13193.373,0.983871
13293.74,0.983529
13395.644,0.9834794
13499.121,0.982981
13604.208,0.982405
13710.943,0.98317
13819.365,0.9824843
13929.515,0.981689
14041.433,0.980967
14155.163,0.9798172
14270.749,0.978114
14388.237,0.976673
14507.674,0.973844
14629.109,0.968928
14752.594,0.962893
14878.179,0.955211
15005.92,0.9429895
15135.871,0.921828
15268.092,0.890244
15402.642,0.840625
15539.583,0.778942
15678.979,0.698785
15820.897,0.612015
15965.407,0.528989