File: csv_library/FTIR_CLAY_13.csv
Database of Origin,University of Winnipeg Spectrophotometer Facility
Sample Description,See Master Clays in HOSERLab database
Date Added,2016-12-11 20:56:55.3414

Data ID,FTIR_CLAY_13
Sample ID,SAP101
Mineral Name,Saponite
Grain Size,<45 m
Viewing Geometry,35/0
Resolution,11-72 nm
Material Class,Phyllosilicate

Wavelength
2001.142,0.37669
2003.474,0.377959
2005.812,0.378825
2008.155,0.380623
2010.504,0.381821
2012.858,0.382809
2015.217,0.383996
2017.582,0.384991
2019.952,0.386207
2022.328,0.3870064
2024.709,0.387966
2027.096,0.388911
2029.488,0.389578
2031.886,0.390279
2034.289,0.39144
2036.698,0.392467
2039.113,0.3934323
2041.533,0.393647
2043.959,0.394198
2046.391,0.394948
2048.828,0.395763
2051.271,0.396288
2053.72,0.396872
2056.175,0.397798
2058.635,0.398329
2061.101,0.399066
2063.573,0.398984
2066.051,0.3995008
2068.534,0.400093
2071.024,0.400379
2073.519,0.40064
2076.02,0.401649
2078.528,0.4022369
2081.041,0.402199
2083.56,0.40234
2086.085,0.403039
2088.617,0.403683
2091.154,0.404135
2093.697,0.404151
2096.247,0.404433
2098.803,0.405405
2101.364,0.405515
2103.932,0.40632
2106.506,0.406923
2109.087,0.406733
2111.673,0.408049
2114.266,0.408287
2116.865,0.409253
2119.471,0.409847
2122.082,0.410048
2124.7,0.410395
2127.325,0.409984
2129.956,0.410011
2132.593,0.41127
2135.237,0.410837
2137.887,0.411076
2140.544,0.411292
2143.207,0.410932
2145.876,0.411123
2148.553,0.411371
2151.235,0.411347
2153.925,0.411055
2156.621,0.409923
2159.324,0.408475
2162.033,0.4083539
2164.749,0.407841
2167.472,0.407176
2170.202,0.406557
2172.938,0.40504
2175.682,0.404347
2178.432,0.4031
2181.189,0.401937
2183.952,0.400863
2186.723,0.399848
2189.501,0.398277
2192.285,0.396443
2195.077,0.393834
2197.876,0.392284
2200.682,0.391004
2203.494,0.388999
2206.314,0.387296
2209.141,0.386759
2211.975,0.386954
2214.817,0.386764
2217.665,0.388288
2220.521,0.389974
2223.384,0.39051
2226.254,0.391174
2229.132,0.391401
2232.017,0.391256
2234.91,0.391453
2237.809,0.392
2240.717,0.3923497
2243.631,0.393137
2246.554,0.394354
2249.483,0.39529
2252.421,0.396341
2255.365,0.397448
2258.318,0.398453
2261.278,0.397931
2264.246,0.397781
2267.221,0.397331
2270.204,0.3958329
2273.195,0.394814
2276.194,0.393506
2279.201,0.392132
2282.215,0.390799
2285.237,0.390031
2288.268,0.389301
2291.306,0.388493
2294.352,0.388584
2297.406,0.388354
2300.468,0.3881906
2303.539,0.388796
2306.617,0.388485
2309.703,0.388316
2312.798,0.388215
2315.901,0.387607
2319.012,0.386832
2322.131,0.386133
2325.259,0.385135
2328.395,0.384627
2331.54,0.383025
2334.692,0.382049
2337.854,0.381035
2341.023,0.379536
2344.201,0.37815
2347.388,0.376807
2350.583,0.375603
2353.787,0.374294
2357.0,0.372417
2360.221,0.370694
2363.451,0.36976
2366.69,0.368296
2369.937,0.366467
2373.194,0.365205
2376.459,0.364355
2379.733,0.362361
2383.016,0.360793
2386.308,0.359299
2389.609,0.357984
2392.919,0.356441
2396.238,0.35484
2399.566,0.35349
2402.903,0.352661
2406.25,0.350891
2409.606,0.349535
2412.971,0.34827
2416.345,0.34696
2419.729,0.34512
2423.122,0.343638
2426.524,0.342163
2429.936,0.340497
2433.358,0.338653
2436.789,0.3366031
2440.229,0.334989
2443.679,0.3332711
2447.139,0.331815
2450.609,0.329352
2454.088,0.328348
2457.577,0.326975
2461.076,0.325208
2464.585,0.323995
2468.104,0.322784
2471.632,0.321417
2475.171,0.319633
2478.72,0.318497
2482.278,0.317107
2485.847,0.315274
2489.427,0.313998
2493.016,0.312247
2496.615,0.311018
2500.225,0.309574
2503.845,0.30839
2507.476,0.307326
2511.117,0.306372
2514.769,0.305543
2518.431,0.305016
2522.103,0.304878
2525.787,0.304065
2529.48,0.304166
2533.185,0.304698
2536.9,0.303922
2540.627,0.30373
2544.364,0.304368
2548.112,0.304447
2551.87,0.305502
2555.64,0.303419
2559.421,0.306436
2563.213,0.311312
2567.016,0.3054506
2570.831,0.306785
2574.656,0.308312
2578.493,0.305785
2582.342,0.308686
2586.201,0.307684
2590.072,0.304664
2593.955,0.3144757
2597.849,0.303906
2601.755,0.3028757
2605.672,0.306523
2609.601,0.299267
2613.542,0.2966019
2617.495,0.301029
2621.459,0.2952035
2625.435,0.291317
2629.424,0.294041
2633.424,0.288322
2637.437,0.281059
2641.461,0.278947
2645.498,0.277156
2649.547,0.271756
2653.609,0.270643
2657.682,0.265113
2661.768,0.262569
2665.867,0.267464
2669.978,0.263122
2674.102,0.247913
2678.238,0.246932
2682.387,0.228358
2686.549,0.217833
2690.724,0.199869
2694.911,0.191779
2699.112,0.170333
2703.325,0.159747
2707.552,0.1525322
2711.791,0.148354
2716.044,0.121324
2720.31,0.126839
2724.589,0.10753
2728.882,0.07873668
2733.188,0.06721841
2737.508,0.05911288
2741.841,0.05604003
2746.188,0.04009646
2750.549,0.03670927
2754.923,0.0387667
2759.311,0.03282115
2763.713,0.03282825
2768.129,0.0315705
2772.559,0.03051275
2777.003,0.02906135
2781.461,0.02943953
2785.934,0.02979211
2790.42,0.02912263
2794.922,0.02817667
2799.437,0.02773757
2803.967,0.02917942
2808.512,0.02730354
2813.071,0.02711839
2817.645,0.02791779
2822.233,0.02778453
2826.837,0.02675075
2831.455,0.02654312
2836.089,0.025954
2840.737,0.02511074
2845.401,0.02400639
2850.08,0.02380652
2854.774,0.02387938
2859.484,0.02287688
2864.209,0.02253928
2868.949,0.02177174
2873.705,0.02145271
2878.477,0.02093114
2883.265,0.02043413
2888.068,0.02020223
2892.887,0.02049801
2897.723,0.01995421
2902.574,0.01922251
2907.441,0.01920105
2912.325,0.0187366
2917.225,0.01947356
2922.142,0.01915438
2927.075,0.0188902
2932.024,0.0181287
2936.99,0.01835514
2941.973,0.01854086
2946.973,0.01925658
2951.989,0.01916176
2957.023,0.01935106
2962.073,0.01826873
2967.141,0.01846912
2972.226,0.01840616
2977.328,0.01988895
2982.448,0.01867437
2987.586,0.01897999
2992.74,0.01959202
2997.913,0.01971237
3003.103,0.02020745
3008.312,0.01943204
3013.538,0.02046169
3018.782,0.02070665
3024.044,0.02048651
3029.325,0.02169062
3034.624,0.02371348
3039.942,0.02193827
3045.278,0.02317714
3050.632,0.02262385
3056.006,0.02301953
3061.398,0.0234869
3066.809,0.02471893
3072.239,0.02402836
3077.689,0.02404767
3083.157,0.02464516
3088.645,0.02565939
3094.153,0.02540517
3099.679,0.02637419
3105.226,0.02634314
3110.792,0.02619664
3116.378,0.02664548
3121.985,0.0274475
3127.611,0.02827295
3133.257,0.0289374
3138.924,0.0297721
3144.611,0.03074233
3150.319,0.03160759
3156.047,0.03284523
3161.796,0.0340058
3167.566,0.03533948
3173.356,0.03648468
3179.168,0.03918687
3185.001,0.04049595
3190.856,0.04108962
3196.731,0.04348886
3202.629,0.04391538
3208.548,0.0458555
3214.488,0.05041244
3220.451,0.05165126
3226.436,0.05205293
3232.443,0.05326741
3238.472,0.05529595
3244.523,0.05765233
3250.598,0.0606337
3256.694,0.06426304
3262.814,0.06417602
3268.956,0.06629094
3275.122,0.0677901
3281.31,0.07003086
3287.522,0.07290247
3293.757,0.07569263
3300.016,0.07851818
3306.299,0.08026995
3312.605,0.08220404
3318.936,0.08479695
3325.29,0.08874936
3331.669,0.09229521
3338.072,0.09191674
3344.499,0.0948247
3350.952,0.0982394
3357.429,0.09913515
3363.931,0.101292
3370.458,0.102714
3377.01,0.103239
3383.588,0.105355
3390.191,0.108787
3396.82,0.112226
3403.475,0.114081
3410.156,0.113825
3416.862,0.112963
3423.596,0.117455
3430.355,0.12304
3437.141,0.130605
3443.954,0.13806
3450.794,0.140191
3457.661,0.14448
3464.556,0.148788
3471.477,0.15111
3478.426,0.153352
3485.403,0.155639
3492.408,0.159403
3499.441,0.157727
3506.502,0.159428
3513.592,0.167381
3520.71,0.176181
3527.857,0.183138
3535.032,0.190027
3542.237,0.193631
3549.471,0.197724
3556.735,0.202037
3564.028,0.2061531
3571.351,0.210258
3578.704,0.214174
3586.088,0.218644
3593.501,0.222417
3600.946,0.225805
3608.421,0.228717
3615.926,0.233243
3623.463,0.236436
3631.032,0.239712
3638.632,0.243141
3646.263,0.246488
3653.927,0.250184
3661.623,0.253038
3669.351,0.256257
3677.111,0.259606
3684.905,0.2634389
3692.731,0.266233
3700.59,0.2694871
3708.483,0.272495
3716.409,0.275809
3724.37,0.278757
3732.364,0.2813161
3740.392,0.284164
3748.455,0.287153
3756.553,0.290066
3764.685,0.292925
3772.853,0.295695
3781.056,0.298209
3789.294,0.300792
3797.568,0.3032157
3805.879,0.305621
3814.225,0.307683
3822.609,0.309636
3831.029,0.311686
3839.486,0.313872
3847.98,0.315514
3856.512,0.317035
3865.081,0.318893
3873.689,0.32041
3882.334,0.321657
3891.019,0.323214
3899.742,0.324758
3908.504,0.3263317
3917.305,0.327448
3926.146,0.328318
3935.027,0.329419
3943.948,0.3302641
3952.909,0.33123
3961.911,0.332403
3970.954,0.3336563
3980.038,0.33458
3989.163,0.335265
3998.33,0.335782
4007.54,0.336371
4016.791,0.336858
4026.086,0.337165
4035.423,0.337769
4044.804,0.338493
4054.228,0.339014
4063.695,0.33957
4073.207,0.340547
4082.764,0.340933
4092.365,0.3418443
4102.012,0.343079
4111.703,0.344356
4121.441,0.345849
4131.224,0.3472617
4141.054,0.348899
4150.931,0.350864
4160.854,0.352559
4170.826,0.354034
4180.844,0.355613
4190.911,0.358909
4201.026,0.3695621
4211.19,0.395937
4221.404,0.430191
4231.666,0.456896
4241.979,0.462841
4252.341,0.432047
4262.754,0.421312
4273.219,0.446124
4283.734,0.446422
4294.301,0.445452
4304.92,0.438867
4315.592,0.428105
4326.317,0.4175167
4337.095,0.409951
4347.926,0.405624
4358.811,0.4044341
4369.751,0.404764
4380.746,0.405936
4391.796,0.409384
4402.902,0.412565
4414.064,0.4160723
4425.282,0.4188626
4436.558,0.421472
4447.891,0.424065
4459.281,0.426757
4470.73,0.429057
4482.238,0.431444
4493.805,0.4335426
4505.431,0.435767
4517.118,0.438116
4528.865,0.440932
4540.674,0.443955
4552.543,0.445862
4564.475,0.448784
4576.47,0.4517172
4588.527,0.454646
4600.648,0.457174
4612.833,0.459524
4625.082,0.462768
4637.397,0.465951
4649.777,0.468662
4662.223,0.47211
4674.735,0.475314
4687.315,0.479443
4699.962,0.482608
4712.678,0.486229
4725.463,0.48988
4738.316,0.492988
4751.24,0.496829
4764.234,0.500727
4777.299,0.505222
4790.436,0.509017
4803.645,0.510776
4816.927,0.513911
4830.283,0.516999
4843.712,0.5218
4857.216,0.523533
4870.795,0.52678
4884.451,0.529987
4898.182,0.534139
4911.991,0.535654
4925.878,0.538211
4939.844,0.541325
4953.888,0.546785
4968.013,0.547209
4982.218,0.548979
4996.504,0.551687
5010.872,0.555819
5025.323,0.561961
5039.857,0.5592
5054.475,0.561436
5069.179,0.564457
5083.967,0.5713942
5098.842,0.570024
5113.804,0.572998
5128.854,0.574902
5143.992,0.586141
5159.22,0.581462
5174.538,0.582492
5189.947,0.586435
5205.448,0.597687
5221.041,0.594701
5236.728,0.59591
5252.51,0.593603
5268.386,0.597065
5284.358,0.6040859
5300.428,0.604377
5316.595,0.602357
5332.86,0.604716
5349.226,0.629925
5365.692,0.6131069
5382.259,0.613489
5398.928,0.616482
5415.701,0.642674
5432.579,0.637384
5449.561,0.640154
5466.65,0.673237
5483.846,0.6753
5501.15,0.684045
5518.564,0.729188
5536.087,0.790295
5553.723,0.9299993
5571.47,0.635832
5589.332,0.4354326
5607.307,0.466447
5625.399,0.502802
5643.607,0.533912
5661.934,0.539689
5680.379,0.55845
5698.945,0.566384
5717.633,0.585903
5736.443,0.587048
5755.377,0.598647
5774.436,0.604426
5793.621,0.590228
5812.934,0.61625
5832.376,0.618894
5851.948,0.614729
5871.652,0.64147
5891.488,0.647575
5911.459,0.62254
5931.565,0.657486
5951.809,0.637407
5972.19,0.649729
5992.711,0.6479628
6013.374,0.64223
6034.179,0.656754
6055.129,0.678485
6076.224,0.665939
6097.466,0.660148
6118.857,0.668716
6140.398,0.66266
6162.091,0.671078
6183.938,0.680993
6205.94,0.670483
6228.099,0.674632
6250.416,0.6772233
6272.893,0.682881
6295.533,0.684919
6318.336,0.68937
6341.304,0.71245
6364.44,0.713876
6387.745,0.712788
6411.221,0.761428
6434.869,0.726254
6458.693,0.7280797
6482.693,0.769458
6506.872,0.743677
6531.231,0.740244
6555.774,0.76127
6580.501,0.766991
6605.415,0.755315
6630.518,0.785238
6655.812,0.748968
6681.3,0.755602
6706.983,0.765265
6732.864,0.746743
6758.945,0.753968
6785.229,0.773231
6811.718,0.756144
6838.413,0.764629
6865.319,0.777847
6892.437,0.758488
6919.769,0.753433
6947.319,0.769727
6975.089,0.765025
7003.081,0.764646
7031.298,0.77918
7059.743,0.770671
7088.419,0.768023
7117.329,0.774084
7146.475,0.786777
7175.86,0.78145
7205.487,0.7848666
7235.36,0.78123
7265.481,0.791306
7295.854,0.78837
7326.481,0.796844
7357.366,0.791908
7388.512,0.792333
7419.922,0.793846
7451.601,0.803263
7483.55,0.799777
7515.774,0.799725
7548.277,0.802768
7581.061,0.807265
7614.131,0.8078073
7647.491,0.808492
7681.143,0.810368
7715.093,0.811973
7749.343,0.813854
7783.899,0.814497
7818.764,0.815955
7853.942,0.818278
7889.437,0.820138
7925.254,0.82278
7961.398,0.824186
7997.872,0.8260739
8034.682,0.828125
8071.832,0.830146
8109.326,0.831766
8147.169,0.8335774
8185.368,0.834745
8223.925,0.835741
8262.847,0.836572
8302.139,0.837399
8341.805,0.838563
8381.852,0.840008
8422.285,0.8414506
8463.109,0.842034
8504.331,0.842811
8545.955,0.843577
8587.989,0.844483
8630.437,0.845507
8673.307,0.846389
8716.604,0.8473195
8760.335,0.84801
8804.507,0.848851
8849.125,0.84974
8894.198,0.850531
8939.732,0.851139
8985.733,0.851581
9032.21,0.852324
9079.17,0.852763
9126.62,0.853334
9174.568,0.8535407
9223.022,0.853911
9271.99,0.8547698
9321.48,0.854912
9371.5,0.855754
9422.06,0.856479
9473.167,0.857463
9524.832,0.858286
9577.062,0.859376
9629.868,0.8602975
9683.259,0.861171
9737.244,0.86233
9791.834,0.863663
9847.039,0.865121
9902.869,0.8659374
9959.336,0.86681
10016.449,0.867616
10074.221,0.868473
10132.662,0.869437
10191.784,0.870509
10251.6,0.871469
10312.121,0.8724034
10373.36,0.873358
10435.331,0.874195
10498.045,0.875108
10561.517,0.87573
10625.761,0.8761715
10690.79,0.876589
10756.619,0.876315
10823.264,0.875838
10890.738,0.875476
10959.058,0.87499
11028.24,0.874107
11098.301,0.87369
11169.256,0.873598
11241.124,0.873616
11313.921,0.873917
11387.667,0.874732
11462.38,0.87536
11538.079,0.8764359
11614.783,0.876999
11692.513,0.877389
11771.29,0.877885
11851.134,0.878326
11932.068,0.878467
12014.114,0.879139
12097.296,0.878401
12181.636,0.8774411
12267.16,0.87793
12353.892,0.87873
12441.859,0.878747
12531.086,0.878879
12621.601,0.878988
12713.432,0.878786
12806.608,0.878926
12901.159,0.879806
12997.116,0.879125
13094.51,0.8789564
13193.373,0.8784629
13293.74,0.87847
13395.644,0.878589
13499.121,0.879065
13604.208,0.878745
13710.943,0.879164
13819.365,0.878821
13929.515,0.877341
14041.433,0.876042
14155.163,0.8739712
14270.749,0.870568
14388.237,0.866027
14507.674,0.860726
14629.109,0.852111
14752.594,0.839157
14878.179,0.82495
15005.92,0.803227
15135.871,0.765403
15268.092,0.714663
15402.642,0.646457
15539.583,0.567
15678.979,0.478039
15820.897,0.407862
15965.407,0.348237