File: csv_library/FTIR_PLG_11.csv
Database of Origin,University of Winnipeg Spectrophotometer Facility
Sample Description,IR Reflectance spectra of plagioclase with a Bruker Vertex 70 FTIR. See Master Plagioclase in PSF database for additional info.
Date Added,2016-11-22 04:00:06.421853

Data ID,FTIR_PLG_11
Sample ID,PLG130
Mineral Name,Plagioclase
Grain Size,250-500 um
Viewing Geometry,"i30, e0"
Resolution,7.71cm-1
Material Class,Tectosilicate

Wavelength
1670.16,0.38394
1672.32,0.38387
1674.48,0.38395
1676.64,0.38417
1678.81,0.38441
1680.99,0.38417
1683.18,0.38374
1685.36,0.38391
1687.56,0.38422
1689.76,0.38458
1691.96,0.38478
1694.18,0.38424
1696.39,0.38387
1698.62,0.38387
1700.85,0.38377
1703.08,0.38365
1705.32,0.38354
1707.57,0.38332
1709.82,0.38332
1712.08,0.3835
1714.35,0.38348
1716.62,0.38341
1718.89,0.38323
1721.18,0.38297
1723.46,0.38278
1725.76,0.38272
1728.06,0.38251
1730.37,0.38199
1732.68,0.38182
1735,0.38205
1737.33,0.38205
1739.66,0.38176
1742,0.38143
1744.34,0.38112
1746.69,0.38073
1749.05,0.38029
1751.41,0.38016
1753.78,0.38036
1756.16,0.38033
1758.54,0.37993
1760.93,0.37965
1763.33,0.37977
1765.73,0.37986
1768.14,0.37997
1770.55,0.38031
1772.98,0.38045
1775.4,0.3805
1777.84,0.38062
1780.28,0.38051
1782.73,0.38049
1785.19,0.38079
1787.65,0.38121
1790.12,0.3813
1792.59,0.38094
1795.08,0.38074
1797.57,0.38094
1800.06,0.38123
1802.57,0.38147
1805.08,0.38167
1807.59,0.38176
1810.12,0.38191
1812.65,0.38229
1815.19,0.3829
1817.73,0.38406
1820.29,0.38497
1822.85,0.38464
1825.42,0.38488
1827.99,0.3858
1830.57,0.3857
1833.16,0.38593
1835.76,0.38802
1838.36,0.3894
1840.97,0.38784
1843.59,0.38568
1846.22,0.38559
1848.85,0.38494
1851.49,0.38359
1854.14,0.38356
1856.8,0.38318
1859.46,0.38184
1862.13,0.37963
1864.81,0.37898
1867.5,0.38106
1870.19,0.38251
1872.9,0.38023
1875.61,0.37522
1878.33,0.3696
1881.05,0.36486
1883.79,0.36109
1886.53,0.35734
1889.28,0.35363
1892.04,0.34871
1894.8,0.34266
1897.58,0.33735
1900.36,0.33157
1903.15,0.3249
1905.95,0.3174
1908.76,0.30939
1911.57,0.30262
1914.39,0.29612
1917.23,0.2904
1920.07,0.2856
1922.92,0.27979
1925.77,0.27407
1928.64,0.26939
1931.51,0.26529
1934.4,0.26183
1937.29,0.25896
1940.19,0.2567
1943.1,0.25504
1946.01,0.25387
1948.94,0.25359
1951.88,0.2541
1954.82,0.25459
1957.77,0.25519
1960.73,0.25616
1963.7,0.25728
1966.68,0.25837
1969.67,0.25953
1972.67,0.261
1975.68,0.26289
1978.69,0.26505
1981.72,0.26718
1984.76,0.26934
1987.8,0.27191
1990.85,0.27488
1993.92,0.27784
1996.99,0.28049
2000.07,0.28311
2003.16,0.28612
2006.26,0.28946
2009.37,0.29281
2012.49,0.29585
2015.62,0.29858
2018.76,0.30102
2021.91,0.30322
2025.07,0.30508
2028.24,0.30673
2031.42,0.30859
2034.61,0.31062
2037.81,0.31249
2041.02,0.31389
2044.24,0.315
2047.46,0.31631
2050.7,0.31772
2053.95,0.31911
2057.21,0.32052
2060.48,0.32181
2063.77,0.32303
2067.06,0.32435
2070.36,0.32581
2073.67,0.32732
2077,0.32873
2080.33,0.32997
2083.67,0.33133
2087.03,0.33292
2090.4,0.33445
2093.77,0.3357
2097.16,0.33678
2100.56,0.3378
2103.97,0.33872
2107.39,0.3397
2110.82,0.34093
2114.27,0.34214
2117.72,0.34314
2121.19,0.34408
2124.66,0.34499
2128.15,0.34584
2131.65,0.34665
2135.16,0.34754
2138.69,0.34854
2142.22,0.34937
2145.77,0.35
2149.33,0.35067
2152.9,0.35144
2156.48,0.35208
2160.08,0.35271
2163.68,0.35343
2167.3,0.3541
2170.93,0.35476
2174.57,0.35551
2178.23,0.35625
2181.89,0.35697
2185.57,0.35785
2189.27,0.35877
2192.97,0.35939
2196.69,0.35996
2200.42,0.36063
2204.16,0.36123
2207.91,0.36195
2211.68,0.3627
2215.46,0.36333
2219.26,0.36378
2223.06,0.36409
2226.88,0.36446
2230.71,0.36506
2234.56,0.36563
2238.42,0.3661
2242.29,0.36664
2246.18,0.36697
2250.08,0.36715
2253.99,0.36744
2257.92,0.36779
2261.86,0.36805
2265.813,0.36805
2269.78,0.36798
2273.76,0.36807
2277.76,0.36805
2281.77,0.36778
2285.79,0.36722
2289.83,0.36654
2293.89,0.36608
2297.95,0.36552
2302.03,0.36476
2306.13,0.36411
2310.24,0.36343
2314.37,0.36233
2318.51,0.3611
2322.66,0.35983
2326.83,0.35819
2331.02,0.35633
2335.22,0.35445
2339.43,0.35237
2343.66,0.35032
2347.91,0.34819
2352.17,0.34558
2356.45,0.3426
2360.74,0.33965
2365.05,0.33673
2369.37,0.33346
2373.71,0.32972
2378.06,0.32565
2382.44,0.32121
2386.82,0.31646
2391.23,0.31163
2395.65,0.30701
2400.08,0.30264
2404.54,0.29848
2409.01,0.29451
2413.49,0.29086
2417.99,0.28757
2422.51,0.28463
2427.05,0.28196
2431.6,0.27956
2436.17,0.27754
2440.76,0.27579
2445.37,0.27405
2449.99,0.2723
2454.63,0.2708
2459.29,0.26956
2463.96,0.26837
2468.66,0.26725
2473.37,0.2664
2478.1,0.26588
2482.84,0.26555
2487.61,0.26513
2492.39,0.26471
2497.2,0.26437
2502.02,0.26419
2506.86,0.26428
2511.72,0.26453
2516.59,0.26454
2521.49,0.26447
2526.4,0.26502
2531.34,0.26612
2536.29,0.26661
2541.26,0.26712
2546.26,0.2678
2551.27,0.26725
2556.3,0.2679
2561.35,0.2709
2566.43,0.27161
2571.52,0.27083
2576.63,0.27133
2581.76,0.27269
2586.92,0.27346
2592.09,0.27255
2597.28,0.27052
2602.5,0.26956
2607.74,0.26763
2612.99,0.26485
2618.27,0.26142
2623.57,0.25725
2628.89,0.25394
2634.24,0.24675
2639.6,0.24013
2644.99,0.23673
2650.4,0.23418
2655.83,0.23326
2661.28,0.23548
2666.76,0.2365
2672.26,0.22931
2677.779,0.21649
2683.32,0.20341
2688.89,0.19297
2694.48,0.1818
2700.09,0.16923
2705.73,0.15886
2711.39,0.14896
2717.08,0.13853
2722.78,0.12439
2728.52,0.11022
2734.27,0.10128
2740.05,0.09149
2745.86,0.08099
2751.69,0.07395
2757.54,0.06834
2763.42,0.06352
2769.327,0.05911
2775.26,0.05557
2781.21,0.05314
2787.19,0.05066
2793.2,0.04845
2799.23,0.04739
2805.29,0.04642
2811.38,0.04524
2817.49,0.0443
2823.63,0.04336
2829.79,0.04271
2835.98,0.0423
2842.2,0.04166
2848.45,0.04115
2854.72,0.0408
2861.03,0.04042
2867.36,0.04017
2873.71,0.04005
2880.1,0.03988
2886.51,0.03966
2892.96,0.03946
2899.43,0.03928
2905.93,0.03891
2912.46,0.03851
2919.02,0.03824
2925.61,0.03795
2932.23,0.03766
2938.88,0.03761
2945.56,0.0377
2952.27,0.03766
2959.01,0.03763
2965.78,0.03783
2972.58,0.03813
2979.41,0.03839
2986.28,0.03851
2993.18,0.03859
3000.1,0.03886
3007.07,0.03914
3014.06,0.03919
3021.084,0.03898
3028.14,0.03877
3035.23,0.03863
3042.36,0.03847
3049.52,0.03831
3056.71,0.03823
3063.94,0.03839
3071.2,0.0387
3078.49,0.03893
3085.82,0.03922
3093.19,0.03957
3100.59,0.03994
3108.02,0.04081
3115.49,0.04193
3123,0.04272
3130.54,0.04336
3138.12,0.04405
3145.74,0.0449
3153.39,0.0459
3161.09,0.04688
3168.81,0.04773
3176.58,0.04861
3184.39,0.0498
3192.23,0.05117
3200.11,0.05235
3208.03,0.05341
3215.99,0.05466
3223.99,0.05609
3232.03,0.05743
3240.11,0.05872
3248.23,0.0601
3256.39,0.06157
3264.6,0.06319
3272.84,0.06486
3281.13,0.06662
3289.45,0.06861
3297.82,0.07061
3306.24,0.07255
3314.69,0.07461
3323.19,0.07677
3331.74,0.07897
3340.32,0.08118
3348.95,0.08357
3357.63,0.08601
3366.35,0.08818
3375.12,0.09036
3383.93,0.09305
3392.79,0.09596
3401.69,0.09863
3410.64,0.10127
3419.64,0.10415
3428.69,0.10722
3437.79,0.11034
3446.93,0.11344
3456.12,0.11648
3465.36,0.11942
3474.65,0.12235
3483.99,0.12532
3493.38,0.12834
3502.82,0.13151
3512.32,0.13502
3521.86,0.13845
3531.46,0.14144
3541.11,0.14447
3550.81,0.14773
3560.56,0.15085
3570.37,0.15371
3580.23,0.15657
3590.15,0.15948
3600.13,0.16223
3610.15,0.16482
3620.24,0.16745
3630.38,0.17008
3640.58,0.17259
3650.83,0.17499
3661.14,0.17728
3671.52,0.17953
3681.95,0.1818
3692.44,0.18405
3702.99,0.18618
3713.6,0.18823
3724.27,0.19015
3735,0.19178
3745.79,0.19346
3756.65,0.19545
3767.57,0.19746
3778.56,0.19922
3789.61,0.20071
3800.72,0.20198
3811.9,0.20312
3823.14,0.20422
3834.45,0.20521
3845.83,0.20585
3857.28,0.20622
3868.79,0.20664
3880.37,0.20708
3892.03,0.20735
3903.75,0.20742
3915.54,0.20733
3927.41,0.20717
3939.35,0.20695
3951.36,0.20647
3963.44,0.20564
3975.6,0.20461
3987.83,0.20339
4000.14,0.202
4012.52,0.20048
4024.98,0.19858
4037.52,0.19637
4050.14,0.19397
4062.84,0.19127
4075.61,0.18824
4088.47,0.18503
4101.41,0.18178
4114.43,0.17849
4127.53,0.17515
4140.72,0.17157
4153.99,0.16775
4167.35,0.16394
4180.79,0.16054
4194.32,0.15918
4207.94,0.16191
4221.65,0.16652
4235.44,0.16447
4249.33,0.15446
4263.31,0.14617
4277.38,0.14065
4291.54,0.13257
4305.8,0.12207
4320.15,0.11218
4334.6,0.10468
4349.14,0.09952
4363.79,0.09594
4378.53,0.09351
4393.37,0.09196
4408.32,0.09097
4423.36,0.09026
4438.51,0.08972
4453.76,0.08934
4469.12,0.08886
4484.58,0.08798
4500.16,0.08671
4515.84,0.08508
4531.626,0.08317
4547.53,0.08114
4563.54,0.07889
4579.66,0.07623
4595.9,0.07351
4612.26,0.07085
4628.73,0.06814
4645.32,0.06559
4662.03,0.06325
4678.86,0.06094
4695.82,0.05878
4712.89,0.05695
4730.09,0.0554
4747.42,0.05401
4764.87,0.05257
4782.45,0.05074
4800.17,0.0489
4818.01,0.04738
4835.99,0.04611
4854.1,0.04515
4872.35,0.04426
4890.74,0.04329
4909.26,0.04224
4927.93,0.04085
4946.74,0.03941
4965.69,0.03842
4984.79,0.03754
5004.03,0.03638
5023.43,0.03508
5042.98,0.0338
5062.68,0.03257
5082.53,0.03129
5102.54,0.03
5122.71,0.02896
5143.04,0.02809
5163.53,0.02708
5184.18,0.02619
5205,0.02555
5225.99,0.02486
5247.15,0.02416
5268.48,0.02353
5289.98,0.02286
5311.66,0.02227
5333.52,0.022
5355.56,0.02165
5377.78,0.02107
5400.19,0.02074
5422.78,0.02048
5445.57,0.0202
5468.54,0.02006
5491.72,0.01982
5515.09,0.01946
5538.65,0.01935
5562.43,0.01936
5586.4,0.01912
5610.58,0.01895
5634.98,0.01884
5659.59,0.01837
5684.41,0.01807
5709.45,0.01816
5734.71,0.01806
5760.2,0.01747
5785.92,0.01679
5811.86,0.01649
5838.04,0.01631
5864.46,0.01606
5891.11,0.01565
5918.01,0.01537
5945.16,0.01521
5972.56,0.01475
6000.21,0.0143
6028.12,0.01455
6056.29,0.01504
6084.72,0.01458
6113.42,0.01394
6142.39,0.01371
6171.64,0.0135
6201.17,0.01303
6230.99,0.01261
6261.09,0.01237
6291.48,0.01225
6322.17,0.01237
6353.16,0.01274
6384.46,0.01317
6416.06,0.01335
6447.99,0.01335
6480.23,0.01349
6512.79,0.01334
6545.68,0.01317
6578.91,0.01298
6612.47,0.01259
6646.38,0.01222
6680.64,0.01185
6715.26,0.01128
6750.23,0.01075
6785.58,0.01039
6821.29,0.01019
6857.38,0.01012
6893.86,0.00981
6930.72,0.00956
6967.98,0.00949
7005.65,0.00924
7043.72,0.00885
7082.21,0.00857
7121.13,0.00848
7160.47,0.00827
7200.25,0.00782
7240.48,0.00749
7281.15,0.00727
7322.29,0.007
7363.89,0.00672
7405.97,0.00654
7448.53,0.00632
7491.59,0.00591
7535.15,0.00551
7579.21,0.00525
7623.79,0.00503
7668.91,0.00471
7714.55,0.0044
7760.75,0.00411
7807.5,0.00381
7854.82,0.00356
7902.71,0.00338
7951.2,0.00339
8000.28,0.00349
8049.97,0.0035
8100.28,0.00369
8151.23,0.0045
8202.82,0.00646
8255.06,0.01005
8307.98,0.01483
8361.58,0.01949
8415.88,0.02331
8470.88,0.02643
8526.61,0.0289
8583.08,0.03083
8640.3,0.03207
8698.29,0.03277
8757.06,0.03381
8816.63,0.03548
8877.02,0.03722
8938.24,0.03803
9000.31,0.03732
9063.25,0.03539
9127.08,0.03294
9191.81,0.03086
9257.46,0.02999
9324.07,0.03042
9391.63,0.03177
9460.18,0.0339
9529.74,0.03681
9600.33,0.04041
9671.98,0.04413
9744.7,0.04728
9818.52,0.04948
9893.47,0.05059
9969.58,0.05111
10046.9,0.0514
10125.4,0.0513
10205.1,0.05134
10286.1,0.05273
10368.4,0.05554
10452,0.05822
10537,0.0598
10623.3,0.06049
10711.1,0.06037
10800.4,0.05941
10891.1,0.05751
10983.4,0.05465
11077.3,0.05117
11172.8,0.04743
11270,0.04362
11368.8,0.04004
11469.4,0.037
11571.8,0.03448
11676.1,0.03264
11782.2,0.03109
11890.3,0.02917
12000.4,0.02719
12112.6,0.02528
12226.8,0.02327
12343.3,0.02132
12462,0.01946
12583,0.01794
12706.3,0.0171
12832.1,0.01736
12960.5,0.01822
13091.4,0.01865
13224.9,0.01892
13361.3,0.01912
13500.5,0.01915
13642.6,0.01926
13787.7,0.01909
13936,0.01824
14087.4,0.01693
14242.3,0.01545
14400.5,0.01449
14562.3,0.01471
14727.8,0.01533
14897.1,0.01567
15070.3,0.01619
15247.6,0.0189
15429.1,0.0257
15615,0.03446
15805.4,0.04027
16000.6,0.04086
16200.6,0.03926
16405.6,0.04005
16616,0.04363
16831.8,0.04673
17053.2,0.04734
17280.6,0.04615
17514.1,0.04381
17754,0.04063
18000.6,0.03901
18254.2,0.04152
18514.9,0.04438
18783.3,0.04259
19059.5,0.03793
19344,0.03303
19637,0.02933
19939.2,0.02645
20250.7,0.02498
20572.1,0.02542
20904,0.02712
21246.6,0.02804
21600.8,0.02639
21966.9,0.02427
22345.6,0.0254
22737.6,0.03028
23143.7,0.0355
23564.5,0.03942
24000.8,0.04723
24453.7,0.06149
24923.9,0.07166
25412.6,0.06531