File: csv_library/FTIR_PYX_17.csv
Database of Origin,University of Winnipeg Spectrophotometer Facility
Sample Description,"HOSERLab master pyroxenes, FTIR data"
Date Added,2016-12-14 03:34:50.0356

Data ID,FTIR_PYX_17
Sample ID,PYX119
Mineral Name,Orthopyroxene
Grain Size,45-90 um
Viewing Geometry,"i=30, e=0"
Material Class,Inosilicate

Wavelength
2000.56,0.175793
2002.307,0.175612
2004.058,0.175664
2005.812,0.176311
2007.569,0.176541
2009.329,0.176981
2011.092,0.176913
2012.858,0.177117
2014.627,0.177747
2016.399,0.178056
2018.174,0.178607
2019.952,0.179015
2021.733,0.1789954
2023.518,0.179015
2025.305,0.1795525
2027.096,0.179806
2028.89,0.179975
2030.686,0.180262
2032.486,0.180729
2034.289,0.181049
2036.096,0.181722
2037.905,0.181884
2039.718,0.18194
2041.533,0.182463
2043.352,0.182728
2045.174,0.183245
2047.0,0.18376
2048.828,0.18408
2050.66,0.184309
2052.495,0.184618
2054.333,0.185468
2056.175,0.185996
2058.019,0.186201
2059.867,0.186048
2061.718,0.186264
2063.573,0.1864279
2065.431,0.186895
2067.292,0.1869906
2069.156,0.187135
2071.024,0.187511
2072.895,0.1879884
2074.769,0.188328
2076.647,0.1885164
2078.528,0.188864
2080.412,0.189276
2082.3,0.18992
2084.191,0.190194
2086.085,0.190527
2087.983,0.191021
2089.885,0.191839
2091.789,0.19206
2093.697,0.192297
2095.609,0.1923585
2097.524,0.19252
2099.443,0.192406
2101.364,0.192577
2103.29,0.192528
2105.219,0.192483
2107.151,0.192351
2109.087,0.192543
2111.026,0.192412
2112.969,0.192213
2114.915,0.192363
2116.865,0.192876
2118.819,0.19336
2120.776,0.193434
2122.736,0.193859
2124.7,0.194605
2126.668,0.195496
2128.64,0.196373
2130.614,0.196826
2132.593,0.19646
2134.575,0.1965571
2136.561,0.196632
2138.55,0.196541
2140.544,0.197088
2142.54,0.197622
2144.541,0.198062
2146.545,0.19787
2148.553,0.198422
2150.564,0.199017
2152.579,0.199343
2154.598,0.200119
2156.621,0.200389
2158.647,0.200809
2160.678,0.201605
2162.712,0.202486
2164.749,0.202865
2166.791,0.203084
2168.836,0.203752
2170.885,0.204067
2172.938,0.204359
2174.995,0.204934
2177.056,0.205239
2179.12,0.205842
2181.189,0.205791
2183.261,0.206291
2185.337,0.207116
2187.417,0.206885
2189.501,0.207294
2191.589,0.208026
2193.68,0.208205
2195.776,0.208843
2197.876,0.209165
2199.979,0.2097058
2202.087,0.209946
2204.199,0.2102244
2206.314,0.210367
2208.434,0.210908
2210.557,0.211649
2212.685,0.211558
2214.817,0.212215
2216.952,0.212655
2219.092,0.212947
2221.236,0.213013
2223.384,0.212861
2225.536,0.213203
2227.692,0.213591
2229.853,0.213687
2232.017,0.2133535
2234.186,0.213113
2236.359,0.212855
2238.536,0.212969
2240.717,0.213018
2242.902,0.212638
2245.092,0.212764
2247.285,0.212738
2249.483,0.213009
2251.686,0.213734
2253.892,0.214291
2256.103,0.214771
2258.318,0.215397
2260.537,0.2158616
2262.761,0.216018
2264.989,0.216246
2267.221,0.216324
2269.458,0.216727
2271.699,0.216948
2273.944,0.217022
2276.194,0.217042
2278.448,0.21765
2280.707,0.217907
2282.97,0.218139
2285.237,0.217781
2287.509,0.21791
2289.786,0.218083
2292.067,0.217984
2294.352,0.218428
2296.642,0.218396
2298.936,0.218176
2301.235,0.218164
2303.539,0.218484
2305.847,0.218113
2308.159,0.217904
2310.476,0.2174325
2312.798,0.217011
2315.124,0.21738
2317.455,0.217222
2319.791,0.217103
2322.131,0.21739
2324.476,0.218269
2326.826,0.219299
2329.18,0.219785
2331.54,0.220614
2333.903,0.221547
2336.272,0.222306
2338.645,0.222918
2341.023,0.224023
2343.406,0.224749
2345.794,0.225554
2348.186,0.226368
2350.583,0.227521
2352.986,0.228373
2355.393,0.228857
2357.804,0.229259
2360.221,0.229499
2362.643,0.229489
2365.069,0.229413
2367.501,0.229327
2369.937,0.229233
2372.379,0.229042
2374.825,0.229269
2377.276,0.229612
2379.733,0.229907
2382.194,0.230405
2384.661,0.230775
2387.132,0.231549
2389.609,0.23205
2392.09,0.232723
2394.577,0.233327
2397.069,0.234123
2399.566,0.234678
2402.068,0.235463
2404.575,0.236312
2407.088,0.237014
2409.606,0.23747
2412.128,0.238106
2414.657,0.238751
2417.19,0.239562
2419.729,0.240202
2422.272,0.240599
2424.822,0.240939
2427.376,0.241422
2429.936,0.241907
2432.501,0.242323
2435.072,0.2426329
2437.648,0.242923
2440.229,0.243361
2442.816,0.244284
2445.408,0.244823
2448.006,0.245251
2450.609,0.245858
2453.217,0.246207
2455.831,0.246938
2458.451,0.247504
2461.076,0.247325
2463.707,0.248201
2466.343,0.248777
2468.985,0.24877
2471.632,0.249441
2474.285,0.249865
2476.944,0.250233
2479.608,0.250268
2482.278,0.250776
2484.954,0.251313
2487.636,0.251833
2490.323,0.25229
2493.016,0.252288
2495.715,0.252739
2498.419,0.253104
2501.129,0.253528
2503.845,0.253731
2506.567,0.254129
2509.295,0.254537
2512.029,0.255051
2514.769,0.255779
2517.514,0.256427
2520.266,0.256584
2523.023,0.257139
2525.787,0.2571403
2528.556,0.2576156
2531.331,0.25843
2534.113,0.258823
2536.9,0.259177
2539.694,0.259418
2542.494,0.26014
2545.3,0.26014
2548.112,0.26047
2550.93,0.261168
2553.754,0.260864
2556.585,0.260096
2559.421,0.261839
2562.264,0.263532
2565.113,0.261929
2567.969,0.262601
2570.831,0.2628829
2573.699,0.263208
2576.573,0.262969
2579.454,0.262858
2582.342,0.264991
2585.235,0.265077
2588.135,0.2652365
2591.042,0.265666
2593.955,0.272278
2596.874,0.266728
2599.8,0.265122
2602.733,0.2678702
2605.672,0.268927
2608.618,0.267209
2611.57,0.265742
2614.529,0.2678727
2617.495,0.2703304
2620.467,0.269231
2623.446,0.267119
2626.431,0.268938
2629.424,0.270693
2632.423,0.269619
2635.429,0.267885
2638.442,0.26757
2641.461,0.267901
2644.488,0.268614
2647.521,0.268615
2650.561,0.268777
2653.609,0.26968
2656.663,0.268965
2659.724,0.269339
2662.792,0.270397
2665.867,0.274275
2668.949,0.273644
2672.038,0.267646
2675.135,0.263066
2678.238,0.254205
2681.349,0.237917
2684.467,0.227352
2687.591,0.214835
2690.724,0.204325
2693.863,0.201169
2697.01,0.1900573
2700.164,0.181738
2703.325,0.17501
2706.494,0.168995
2709.67,0.17112
2712.853,0.162516
2716.044,0.152679
2719.242,0.159628
2722.448,0.1621789
2725.661,0.154757
2728.882,0.145106
2732.111,0.142037
2735.347,0.140025
2738.59,0.138644
2741.841,0.138708
2745.1,0.134986
2748.367,0.134657
2751.641,0.135522
2754.923,0.137122
2758.213,0.13639
2761.51,0.1369765
2764.816,0.137177
2768.129,0.13772
2771.45,0.138538
2774.779,0.13921
2778.116,0.140302
2781.461,0.140618
2784.814,0.140861
2788.175,0.1411433
2791.544,0.141649
2794.922,0.1410474
2798.307,0.141254
2801.7,0.140157
2805.102,0.139041
2808.512,0.140506
2811.93,0.140887
2815.356,0.14059
2818.791,0.14022
2822.233,0.139955
2825.685,0.14099
2829.144,0.141071
2832.612,0.140855
2836.089,0.14039
2839.574,0.14073
2843.067,0.141234
2846.569,0.1413422
2850.08,0.14166
2853.599,0.141649
2857.127,0.1414009
2860.664,0.142427
2864.209,0.1427475
2867.763,0.142178
2871.325,0.142181
2874.897,0.142608
2878.477,0.142985
2882.066,0.142975
2885.664,0.142749
2889.271,0.14361
2892.887,0.143356
2896.512,0.142706
2900.146,0.142207
2903.789,0.142185
2907.441,0.142319
2911.103,0.1423826
2914.773,0.143229
2918.453,0.14391
2922.142,0.142347
2925.84,0.142081
2929.547,0.1421354
2933.264,0.141772
2936.99,0.142408
2940.726,0.14235
2944.471,0.142932
2948.225,0.144839
2951.989,0.143892
2955.763,0.14444
2959.546,0.143649
2963.339,0.1439064
2967.141,0.144719
2970.953,0.144959
2974.775,0.147296
2978.607,0.147115
2982.448,0.146095
2986.3,0.146503
2990.161,0.147571
2994.032,0.148651
2997.913,0.148583
3001.804,0.149832
3005.705,0.1500395
3009.616,0.149879
3013.538,0.15124
3017.469,0.15177
3021.411,0.151576
3025.363,0.152261
3029.325,0.154231
3033.298,0.156672
3037.281,0.155245
3041.274,0.155815
3045.278,0.157221
3049.292,0.157124
3053.317,0.157163
3057.352,0.15767
3061.398,0.158908
3065.455,0.1605719
3069.522,0.159729
3073.6,0.159755
3077.689,0.161056
3081.788,0.161622
3085.899,0.162466
3090.02,0.16323
3094.153,0.162854
3098.296,0.164013
3102.45,0.165378
3106.616,0.164537
3110.792,0.165067
3114.98,0.166329
3119.179,0.167072
3123.389,0.167439
3127.611,0.168472
3131.844,0.168953
3136.088,0.169779
3140.344,0.170545
3144.611,0.171485
3148.89,0.172763
3153.18,0.173603
3157.482,0.174537
3161.796,0.17549
3166.121,0.176526
3170.458,0.177176
3174.807,0.178115
3179.168,0.1807265
3183.541,0.182044
3187.926,0.181392
3192.323,0.182991
3196.731,0.184034
3201.152,0.184119
3205.585,0.185299
3210.031,0.186402
3214.488,0.190348
3218.958,0.191417
3223.441,0.189866
3227.936,0.1908958
3232.443,0.191098
3236.963,0.192242
3241.495,0.192918
3246.04,0.194837
3250.598,0.196702
3255.168,0.199124
3259.751,0.1996158
3264.347,0.198336
3268.956,0.2002498
3273.578,0.200948
3278.213,0.2012
3282.861,0.202843
3287.522,0.204295
3292.196,0.205712
3296.884,0.20788
3301.585,0.207456
3306.299,0.2086773
3311.026,0.209123
3315.767,0.21002
3320.522,0.210987
3325.29,0.213588
3330.072,0.216079
3334.867,0.21458
3339.676,0.214282
3344.499,0.215635
3349.336,0.217255
3354.187,0.218162
3359.052,0.217899
3363.931,0.219877
3368.824,0.220414
3373.731,0.22035
3378.652,0.220381
3383.588,0.221306
3388.538,0.222408
3393.502,0.223369
3398.481,0.225138
3403.475,0.2268
3408.483,0.227552
3413.506,0.226446
3418.543,0.227337
3423.596,0.229562
3428.663,0.2308099
3433.745,0.232316
3438.842,0.235463
3443.954,0.23805
3449.082,0.23675
3454.224,0.23721
3459.382,0.238367
3464.556,0.239932
3469.744,0.24036
3474.948,0.241023
3480.168,0.24188
3485.403,0.242833
3490.654,0.245778
3495.921,0.246078
3501.204,0.2459
3506.502,0.247316
3511.817,0.248862
3517.147,0.250165
3522.494,0.251692
3527.857,0.252759
3533.236,0.255434
3538.631,0.2563299
3544.043,0.255886
3549.471,0.256702
3554.916,0.257643
3560.378,0.258398
3565.856,0.259598
3571.351,0.261354
3576.863,0.261915
3582.392,0.263342
3587.938,0.264575
3593.501,0.265144
3599.082,0.26639
3604.679,0.266203
3610.294,0.267117
3615.926,0.269008
3621.576,0.269394
3627.244,0.269772
3632.929,0.270604
3638.632,0.271687
3644.353,0.272906
3650.091,0.274535
3655.848,0.275095
3661.623,0.27572
3667.416,0.2768
3673.227,0.277595
3679.057,0.279121
3684.905,0.280309
3690.771,0.280647
3696.656,0.281492
3702.56,0.282458
3708.483,0.283192
3714.425,0.284003
3720.385,0.285195
3726.365,0.2862169
3732.364,0.287364
3738.382,0.288678
3744.419,0.2905935
3750.476,0.291459
3756.553,0.291866
3762.649,0.292592
3768.764,0.293692
3774.9,0.294713
3781.056,0.2953989
3787.231,0.296432
3793.427,0.297293
3799.643,0.298042
3805.879,0.2990065
3812.135,0.299921
3818.412,0.300888
3824.71,0.302087
3831.029,0.302866
3837.368,0.304172
3843.728,0.305732
3850.109,0.306768
3856.512,0.307991
3862.935,0.309092
3869.38,0.310333
3875.846,0.311506
3882.334,0.312713
3888.844,0.313865
3895.375,0.315082
3901.929,0.316223
3908.504,0.316886
3915.101,0.318204
3921.721,0.319284
3928.363,0.3203022
3935.027,0.321038
3941.714,0.32258
3948.423,0.323866
3955.156,0.325165
3961.911,0.327065
3968.689,0.329155
3975.491,0.3311124
3982.315,0.33293
3989.163,0.334065
3996.035,0.335698
4002.93,0.337195
4009.849,0.3386641
4016.791,0.339812
4023.758,0.341412
4030.749,0.34261
4037.764,0.344264
4044.804,0.346007
4051.867,0.348131
4058.956,0.3501289
4066.069,0.352027
4073.207,0.353929
4080.371,0.355877
4087.559,0.35825
4094.773,0.360478
4102.012,0.362827
4109.276,0.364842
4116.566,0.367231
4123.882,0.369767
4131.224,0.371982
4138.592,0.374544
4145.987,0.3775135
4153.407,0.380336
4160.854,0.38315
4168.328,0.385884
4175.829,0.388577
4183.356,0.391643
4190.911,0.395462
4198.493,0.402269
4206.102,0.416403
4213.739,0.436005
4221.404,0.455582
4229.096,0.472057
4236.816,0.482477
4244.565,0.482102
4252.341,0.464973
4260.146,0.457384
4267.98,0.478256
4275.843,0.485261
4283.734,0.486897
4291.655,0.490032
4299.604,0.489463
4307.583,0.488849
4315.592,0.484523
4323.631,0.481453
4331.699,0.4798
4339.797,0.4776533
4347.926,0.478137
4356.085,0.480406
4364.275,0.482763
4372.495,0.4863277
4380.746,0.489826
4389.029,0.494943
4397.342,0.499923
4405.687,0.504657
4414.064,0.509778
4422.472,0.514208
4430.913,0.518626
4439.386,0.5228932
4447.891,0.526404
4456.428,0.529457
4464.998,0.532929
4473.602,0.536071
4482.238,0.539143
4490.908,0.541498
4499.611,0.544363
4508.347,0.547256
4517.118,0.549475
4525.923,0.551763
4534.762,0.554196
4543.635,0.556559
4552.543,0.559121
4561.487,0.562318
4570.465,0.564538
4579.478,0.566612
4588.527,0.569284
4597.612,0.571054
4606.732,0.574194
4615.889,0.575891
4625.082,0.578063
4634.312,0.579946
4643.578,0.582691
4652.882,0.585313
4662.223,0.588258
4671.601,0.592427
4681.017,0.596765
4690.471,0.598406
4699.962,0.602572
4709.493,0.607195
4719.062,0.610368
4728.669,0.614156
4738.316,0.617688
4748.002,0.620329
4757.728,0.624006
4767.494,0.627348
4777.299,0.630631
4787.145,0.633948
4797.032,0.636374
4806.959,0.6389244
4816.927,0.6427
4826.937,0.64429
4836.988,0.646106
4847.081,0.649656
4857.216,0.653194
4867.393,0.655579
4877.613,0.657184
4887.876,0.659902
4898.182,0.664254
4908.532,0.666839
4918.925,0.668279
4929.362,0.67159
4939.844,0.674681
4950.37,0.678099
4960.941,0.680959
4971.556,0.682653
4982.218,0.68554
4992.925,0.687741
5003.678,0.690667
5014.477,0.695184
5025.323,0.698477
5036.216,0.698659
5047.156,0.700788
5058.143,0.7028927
5069.179,0.70511
5080.262,0.709644
5091.394,0.711334
5102.574,0.712946
5113.804,0.71549
5125.083,0.717412
5136.412,0.721787
5147.791,0.728248
5159.22,0.727226
5170.7,0.729727
5182.231,0.733059
5193.814,0.739034
5205.448,0.745983
5217.134,0.7482857
5228.873,0.748009
5240.665,0.752332
5252.51,0.753677
5264.408,0.75721
5276.36,0.762239
5288.367,0.767603
5300.428,0.7683724
5312.544,0.769284
5324.715,0.77217
5336.942,0.776749
5349.226,0.788061
5361.566,0.783379
5373.962,0.782816
5386.417,0.784497
5398.928,0.786493
5411.498,0.794888
5424.127,0.802315
5436.814,0.795181
5449.561,0.799017
5462.368,0.811562
5475.234,0.816629
5488.162,0.815782
5501.15,0.815259
5514.2,0.831802
5527.312,0.848282
5540.486,0.857949
5553.723,0.799628
5567.023,0.679699
5580.387,0.6799799
5593.815,0.745296
5607.307,0.76372
5620.865,0.779636
5634.489,0.789433
5648.178,0.7920113
5661.934,0.793397
5675.757,0.801768
5689.647,0.804921
5703.606,0.810041
5717.633,0.8169281
5731.729,0.820283
5745.894,0.825541
5760.13,0.834769
5774.436,0.835638
5788.813,0.829236
5803.262,0.835002
5817.782,0.851893
5832.376,0.848074
5847.043,0.84582
5861.783,0.856476
5876.598,0.868478
5891.488,0.867544
5906.454,0.858062
5921.495,0.863996
5936.613,0.875386
5951.809,0.86908
5967.082,0.871855
5982.433,0.873484
5997.864,0.871346
6013.374,0.872195
6028.964,0.873746
6044.636,0.888011
6060.389,0.884454
6076.224,0.8838144
6092.141,0.881553
6108.143,0.892631
6124.228,0.88686
6140.398,0.888874
6156.654,0.892668
6172.996,0.894996
6189.424,0.895917
6205.94,0.894831
6222.544,0.896441
6239.237,0.897661
6256.02,0.89849
6272.893,0.901968
6289.858,0.902078
6306.914,0.903613
6324.062,0.90785
6341.304,0.912251
6358.64,0.913999
6376.071,0.91471
6393.598,0.916431
6411.221,0.926116
6428.941,0.920426
6446.759,0.919986
6464.676,0.923883
6482.693,0.931223
6500.81,0.927738
6519.029,0.929304
6537.35,0.929897
6555.774,0.933644
6574.302,0.936465
6592.934,0.936819
6611.673,0.939998
6630.518,0.944695
6649.47,0.938967
6668.532,0.942363
6687.702,0.942287
6706.983,0.947165
6726.375,0.945318
6745.879,0.945539
6765.497,0.949662
6785.229,0.951446
6805.076,0.949883
6825.039,0.951921
6845.12,0.955388
6865.319,0.955764
6885.637,0.954485
6906.076,0.956327
6926.636,0.956292
6947.319,0.958844
6968.125,0.959453
6989.057,0.9609
7010.114,0.962218
7031.298,0.965133
7052.611,0.965754
7074.052,0.965757
7095.625,0.967056
7117.329,0.968741
7139.166,0.970599
7161.137,0.97138
7183.244,0.972156
7205.487,0.973437
7227.869,0.97377
7250.39,0.975239
7273.051,0.976704
7295.854,0.977599
7318.8,0.979121
7341.891,0.980041
7365.128,0.980591
7388.512,0.982363
7412.045,0.983872
7435.728,0.985099
7459.562,0.986395
7483.55,0.987039
7507.692,0.987753
7531.99,0.988714
7556.446,0.989727
7581.061,0.990321
7605.837,0.990485
7630.774,0.990875
7655.876,0.991388
7681.143,0.992418
7706.577,0.9931176
7732.18,0.993488
7757.953,0.994527
7783.899,0.995632
7810.018,0.996706
7836.313,0.998023
7862.786,0.999133
7889.437,0.0100057
7916.27,0.0100175
7943.285,0.0100278
7970.485,0.0100409
7997.872,0.0100546
8025.448,0.010063
8053.214,0.0100725
8081.173,0.0100814
8109.326,0.0100883
8137.676,0.0101001
8166.224,0.010108
8194.973,0.01011901
8223.925,0.0101279
8253.082,0.0101351
8282.446,0.0101466
8312.02,0.0101571
8341.805,0.0101671
8371.804,0.0101763
8402.02,0.0101858
8432.454,0.010193
8463.109,0.0102002
8493.988,0.0102071
8525.092,0.010212
8556.425,0.0102171
8587.989,0.0102238
8619.786,0.0102271
8651.819,0.0102317
8684.091,0.0102376
8716.604,0.0102446
8749.361,0.0102513
8782.365,0.0102582
8815.619,0.0102666
8849.125,0.0102756
8882.887,0.0102829
8916.907,0.0102914
8951.188,0.0102984
8985.733,0.0102999
9020.546,0.0103002
9055.629,0.0102976
9090.986,0.0102955
9126.62,0.0102924
9162.534,0.0102807
9198.731,0.010272
9235.215,0.0102657
9271.99,0.0102619
9309.058,0.0102597
9346.423,0.0102588
9384.089,0.0102583
9422.06,0.0102627
9460.339,0.0102668
9498.929,0.0102715
9537.836,0.0102763
9577.062,0.0102841
9616.612,0.0102893
9656.49,0.0102942
9696.699,0.010302
9737.244,0.0103044
9778.129,0.0103027
9819.359,0.0102975
9860.938,0.0102946
9902.869,0.0102939
9945.159,0.0102925
9987.811,0.0102933
10030.83,0.0102979
10074.221,0.0102975
10117.988,0.0102985
10162.137,0.0103011
10206.672,0.0103068
10251.6,0.0103166
10296.924,0.0103243
10342.65,0.0103292
10388.784,0.010331
10435.331,0.0103321
10482.296,0.0103292
10529.686,0.0103277
10577.505,0.0103324
10625.761,0.0103353
10674.458,0.0103337
10723.604,0.0103321
10773.203,0.0103355
10823.264,0.0103367
10873.791,0.0103403
10924.791,0.0103459
10976.272,0.0103509
11028.24,0.0103551
11080.702,0.0103568
11133.665,0.010357
11187.137,0.0103531
11241.124,0.0103452
11295.634,0.0103397
11350.675,0.0103386
11406.254,0.0103317
11462.38,0.010328
11519.06,0.0103222
11576.304,0.0103164
11634.118,0.0103147
11692.513,0.0103117
11751.496,0.010313
11811.077,0.0103156
11871.265,0.0103205
11932.068,0.0103243
11993.497,0.01032472
12055.562,0.0103276
12118.271,0.0103335
12181.636,0.0103309
12245.667,0.0103274
12310.373,0.0103247
12375.767,0.0103213
12441.859,0.0103155
12508.659,0.0103159
12576.18,0.0103114
12644.434,0.0103072
12713.432,0.0103076
12783.187,0.0103091
12853.71,0.010311
12925.016,0.0103115
12997.116,0.0103161
13070.025,0.0103234
13143.756,0.0103265
13218.322,0.0103295
13293.74,0.0103332
13370.021,0.0103349
13447.183,0.0103363
13525.24,0.0103315
13604.208,0.0103235
13684.103,0.0103162
13764.941,0.0103023
13846.739,0.0102934
13929.515,0.0102954
14013.285,0.0102921
14098.068,0.0102865
14183.883,0.0102784
14270.749,0.0102699
14358.684,0.0102767
14447.709,0.0102732
14537.844,0.0102591
14629.109,0.0102595
14721.528,0.0102565
14815.121,0.0102517
14909.91,0.0102239
15005.92,0.0102086
15103.173,0.0101934
15201.695,0.0101378
15301.509,0.0100333
15402.642,0.987245
15505.12,0.963893
15608.97,0.935721
15714.22,0.89257
15820.897,0.843424
15929.033,0.793284
15965.407,0.7656282