File: csv_library/FTIR_PYX_05.csv
Database of Origin,University of Winnipeg Spectrophotometer Facility
Sample Description,"HOSERLab master pyroxenes, FTIR data"
Date Added,2016-12-14 03:34:49.64

Data ID,FTIR_PYX_05
Sample ID,PYX032
Mineral Name,Orthopyroxene
Grain Size,<45 um
Viewing Geometry,"i=30, e=0"
Material Class,Inosilicate

Wavelength
2000.56,0.284628
2002.307,0.284138
2004.058,0.2843152
2005.812,0.284471
2007.569,0.284698
2009.329,0.284886
2011.092,0.284699
2012.858,0.285057
2014.627,0.285181
2016.399,0.285128
2018.174,0.285321
2019.952,0.285665
2021.733,0.285374
2023.518,0.285453
2025.305,0.285499
2027.096,0.285605
2028.89,0.285699
2030.686,0.285915
2032.486,0.2864
2034.289,0.287403
2036.096,0.287402
2037.905,0.287599
2039.718,0.288247
2041.533,0.287963
2043.352,0.287833
2045.174,0.28843
2047.0,0.288688
2048.828,0.288763
2050.66,0.28855
2052.495,0.289312
2054.333,0.289548
2056.175,0.289914
2058.019,0.28993
2059.867,0.290521
2061.718,0.290679
2063.573,0.290727
2065.431,0.29123
2067.292,0.29165
2069.156,0.291792
2071.024,0.292363
2072.895,0.293256
2074.769,0.293472
2076.647,0.293302
2078.528,0.293815
2080.412,0.29464
2082.3,0.295197
2084.191,0.2955309
2086.085,0.295881
2087.983,0.296503
2089.885,0.297176
2091.789,0.297281
2093.697,0.297178
2095.609,0.297503
2097.524,0.297685
2099.443,0.298739
2101.364,0.298954
2103.29,0.298597
2105.219,0.298776
2107.151,0.298997
2109.087,0.299137
2111.026,0.298878
2112.969,0.2990157
2114.915,0.299556
2116.865,0.300352
2118.819,0.300939
2120.776,0.301404
2122.736,0.302128
2124.7,0.302739
2126.668,0.303014
2128.64,0.303635
2130.614,0.304632
2132.593,0.3051304
2134.575,0.305195
2136.561,0.305514
2138.55,0.306093
2140.544,0.307011
2142.54,0.307684
2144.541,0.308045
2146.545,0.308434
2148.553,0.309121
2150.564,0.309646
2152.579,0.30969
2154.598,0.310699
2156.621,0.311061
2158.647,0.312033
2160.678,0.312798
2162.712,0.313994
2164.749,0.315061
2166.791,0.315918
2168.836,0.316346
2170.885,0.317164
2172.938,0.317737
2174.995,0.317991
2177.056,0.319244
2179.12,0.320355
2181.189,0.320285
2183.261,0.32105
2185.337,0.322001
2187.417,0.322617
2189.501,0.323357
2191.589,0.324241
2193.68,0.3248654
2195.776,0.3253297
2197.876,0.326071
2199.979,0.326801
2202.087,0.32749
2204.199,0.327997
2206.314,0.328424
2208.434,0.329577
2210.557,0.330036
2212.685,0.330716
2214.817,0.33172
2216.952,0.332346
2219.092,0.3330262
2221.236,0.333661
2223.384,0.33403
2225.536,0.334962
2227.692,0.335942
2229.853,0.336129
2232.017,0.336213
2234.186,0.336806
2236.359,0.3375778
2238.536,0.338129
2240.717,0.33867
2242.902,0.339111
2245.092,0.339765
2247.285,0.340513
2249.483,0.341154
2251.686,0.341612
2253.892,0.342015
2256.103,0.343048
2258.318,0.343549
2260.537,0.344648
2262.761,0.345251
2264.989,0.345793
2267.221,0.345955
2269.458,0.34616
2271.699,0.347031
2273.944,0.347923
2276.194,0.348291
2278.448,0.349023
2280.707,0.349804
2282.97,0.350264
2285.237,0.350585
2287.509,0.351004
2289.786,0.352143
2292.067,0.352701
2294.352,0.353568
2296.642,0.354063
2298.936,0.354412
2301.235,0.355015
2303.539,0.3555
2305.847,0.356321
2308.159,0.357184
2310.476,0.357398
2312.798,0.357499
2315.124,0.358054
2317.455,0.358407
2319.791,0.358738
2322.131,0.359423
2324.476,0.360077
2326.826,0.360939
2329.18,0.36157
2331.54,0.3625013
2333.903,0.362858
2336.272,0.363298
2338.645,0.364059
2341.023,0.365143
2343.406,0.365609
2345.794,0.366121
2348.186,0.366702
2350.583,0.367881
2352.986,0.368295
2355.393,0.368833
2357.804,0.369479
2360.221,0.370053
2362.643,0.3705942
2365.069,0.370915
2367.501,0.371331
2369.937,0.371437
2372.379,0.371281
2374.825,0.372061
2377.276,0.372372
2379.733,0.372799
2382.194,0.372999
2384.661,0.373937
2387.132,0.374686
2389.609,0.375145
2392.09,0.375401
2394.577,0.375948
2397.069,0.376748
2399.566,0.376546
2402.068,0.377262
2404.575,0.37773
2407.088,0.378041
2409.606,0.378507
2412.128,0.378652
2414.657,0.379222
2417.19,0.3797222
2419.729,0.380573
2422.272,0.380709
2424.822,0.380854
2427.376,0.3813713
2429.936,0.381715
2432.501,0.381759
2435.072,0.382172
2437.648,0.38259
2440.229,0.382626
2442.816,0.383243
2445.408,0.383941
2448.006,0.384599
2450.609,0.385109
2453.217,0.384612
2455.831,0.385003
2458.451,0.385197
2461.076,0.385572
2463.707,0.386181
2466.343,0.386376
2468.985,0.386812
2471.632,0.387683
2474.285,0.387612
2476.944,0.387674
2479.608,0.387779
2482.278,0.388065
2484.954,0.3886512
2487.636,0.388817
2490.323,0.3892248
2493.016,0.3890532
2495.715,0.389348
2498.419,0.389595
2501.129,0.390053
2503.845,0.390375
2506.567,0.390773
2509.295,0.391409
2512.029,0.39232
2514.769,0.392842
2517.514,0.393044
2520.266,0.3931428
2523.023,0.393593
2525.787,0.393553
2528.556,0.394129
2531.331,0.394984
2534.113,0.39478
2536.9,0.395105
2539.694,0.3955408
2542.494,0.396039
2545.3,0.395849
2548.112,0.395795
2550.93,0.397148
2553.754,0.396571
2556.585,0.395332
2559.421,0.397351
2562.264,0.39978
2565.113,0.397606
2567.969,0.398069
2570.831,0.398172
2573.699,0.399373
2576.573,0.3994068
2579.454,0.399329
2582.342,0.400725
2585.235,0.399613
2588.135,0.399777
2591.042,0.400276
2593.955,0.407938
2596.874,0.400422
2599.8,0.398648
2602.733,0.4017373
2605.672,0.403247
2608.618,0.400382
2611.57,0.398715
2614.529,0.401386
2617.495,0.4030555
2620.467,0.401551
2623.446,0.399428
2626.431,0.401779
2629.424,0.404069
2632.423,0.402489
2635.429,0.400429
2638.442,0.400151
2641.461,0.40048
2644.488,0.401391
2647.521,0.400873
2650.561,0.401556
2653.609,0.402786
2656.663,0.401754
2659.724,0.4026063
2662.792,0.4042527
2665.867,0.409365
2668.949,0.409163
2672.038,0.404896
2675.135,0.40468
2678.238,0.40504
2681.349,0.398632
2684.467,0.398752
2687.591,0.397577
2690.724,0.396222
2693.863,0.398232
2697.01,0.3899092
2700.164,0.383479
2703.325,0.378936
2706.494,0.375136
2709.67,0.377812
2712.853,0.365593
2716.044,0.350665
2719.242,0.347935
2722.448,0.3501121
2725.661,0.336707
2728.882,0.307411
2732.111,0.297195
2735.347,0.294862
2738.59,0.287963
2741.841,0.271236
2745.1,0.258178
2748.367,0.256263
2751.641,0.252356
2754.923,0.2485319
2758.213,0.238833
2761.51,0.236286
2764.816,0.234197
2768.129,0.231622
2771.45,0.22952
2774.779,0.2270914
2778.116,0.226179
2781.461,0.2245093
2784.814,0.223055
2788.175,0.222113
2791.544,0.220474
2794.922,0.219224
2798.307,0.2181617
2801.7,0.217421
2805.102,0.216099
2808.512,0.21602
2811.93,0.2158768
2815.356,0.21557
2818.791,0.2157377
2822.233,0.215221
2825.685,0.215917
2829.144,0.215816
2832.612,0.2159884
2836.089,0.215961
2839.574,0.215409
2843.067,0.21534
2846.569,0.215251
2850.08,0.214828
2853.599,0.214783
2857.127,0.214415
2860.664,0.214708
2864.209,0.214465
2867.763,0.213575
2871.325,0.212571
2874.897,0.212132
2878.477,0.2118237
2882.066,0.210996
2885.664,0.210308
2889.271,0.21083
2892.887,0.210018
2896.512,0.208805
2900.146,0.208344
2903.789,0.208011
2907.441,0.208186
2911.103,0.207903
2914.773,0.207843
2918.453,0.208974
2922.142,0.207522
2925.84,0.206639
2929.547,0.206038
2933.264,0.20569
2936.99,0.206522
2940.726,0.206417
2944.471,0.206568
2948.225,0.208687
2951.989,0.207504
2955.763,0.208385
2959.546,0.207543
2963.339,0.207692
2967.141,0.208611
2970.953,0.209308
2974.775,0.2115942
2978.607,0.2118018
2982.448,0.211326
2986.3,0.2121081
2990.161,0.2133073
2994.032,0.213946
2997.913,0.2146803
3001.804,0.2165633
3005.705,0.217027
3009.616,0.217391
3013.538,0.218688
3017.469,0.21949
3021.411,0.219668
3025.363,0.2205611
3029.325,0.222721
3033.298,0.225112
3037.281,0.223592
3041.274,0.224448
3045.278,0.2262391
3049.292,0.225931
3053.317,0.226004
3057.352,0.226977
3061.398,0.228094
3065.455,0.229758
3069.522,0.229515
3073.6,0.229787
3077.689,0.231096
3081.788,0.231849
3085.899,0.232649
3090.02,0.233503
3094.153,0.233647
3098.296,0.234688
3102.45,0.236302
3106.616,0.235357
3110.792,0.235502
3114.98,0.2368128
3119.179,0.237491
3123.389,0.238083
3127.611,0.238722
3131.844,0.239738
3136.088,0.240617
3140.344,0.241414
3144.611,0.24238
3148.89,0.2436396
3153.18,0.244211
3157.482,0.24486
3161.796,0.246092
3166.121,0.2472656
3170.458,0.248423
3174.807,0.249433
3179.168,0.252
3183.541,0.253309
3187.926,0.252762
3192.323,0.254495
3196.731,0.256277
3201.152,0.256274
3205.585,0.257869
3210.031,0.259097
3214.488,0.262902
3218.958,0.264152
3223.441,0.263044
3227.936,0.263999
3232.443,0.2641624
3236.963,0.265539
3241.495,0.266287
3246.04,0.268411
3250.598,0.269808
3255.168,0.272067
3259.751,0.27283
3264.347,0.271594
3268.956,0.273343
3273.578,0.274232
3278.213,0.27434
3282.861,0.275932
3287.522,0.277355
3292.196,0.27872
3296.884,0.280921
3301.585,0.280499
3306.299,0.281631
3311.026,0.2819073
3315.767,0.2830148
3320.522,0.284077
3325.29,0.286276
3330.072,0.2883124
3334.867,0.286538
3339.676,0.285879
3344.499,0.28684
3349.336,0.287972
3354.187,0.288513
3359.052,0.2879222
3363.931,0.289658
3368.824,0.290511
3373.731,0.290318
3378.652,0.2899268
3383.588,0.290667
3388.538,0.291858
3393.502,0.292619
3398.481,0.294315
3403.475,0.295382
3408.483,0.295943
3413.506,0.295024
3418.543,0.296013
3423.596,0.298238
3428.663,0.299128
3433.745,0.300176
3438.842,0.303056
3443.954,0.305081
3449.082,0.303916
3454.224,0.304268
3459.382,0.304499
3464.556,0.305013
3469.744,0.304463
3474.948,0.304109
3480.168,0.304281
3485.403,0.304796
3490.654,0.307274
3495.921,0.3073038
3501.204,0.307046
3506.502,0.308194
3511.817,0.309511
3517.147,0.3106776
3522.494,0.311836
3527.857,0.3127156
3533.236,0.315349
3538.631,0.316044
3544.043,0.3156287
3549.471,0.316248
3554.916,0.317258
3560.378,0.3179602
3565.856,0.318576
3571.351,0.319592
3576.863,0.319709
3582.392,0.320688
3587.938,0.321488
3593.501,0.321809
3599.082,0.322407
3604.679,0.321458
3610.294,0.321972
3615.926,0.323615
3621.576,0.323645
3627.244,0.324018
3632.929,0.324457
3638.632,0.325281
3644.353,0.3258585
3650.091,0.327231
3655.848,0.327396
3661.623,0.327439
3667.416,0.327803
3673.227,0.328309
3679.057,0.3296137
3684.905,0.33029
3690.771,0.330119
3696.656,0.330939
3702.56,0.331904
3708.483,0.332541
3714.425,0.332996
3720.385,0.3333458
3726.365,0.33383
3732.364,0.334571
3738.382,0.335661
3744.419,0.3369436
3750.476,0.337787
3756.553,0.338296
3762.649,0.33853
3768.764,0.339227
3774.9,0.339831
3781.056,0.340216
3787.231,0.340903
3793.427,0.341788
3799.643,0.342671
3805.879,0.343052
3812.135,0.343341
3818.412,0.344063
3824.71,0.3447856
3831.029,0.345351
3837.368,0.346119
3843.728,0.346807
3850.109,0.347851
3856.512,0.348908
3862.935,0.350132
3869.38,0.35068
3875.846,0.351493
3882.334,0.3522025
3888.844,0.3532307
3895.375,0.354358
3901.929,0.3547851
3908.504,0.355333
3915.101,0.356277
3921.721,0.357181
3928.363,0.358152
3935.027,0.3590194
3941.714,0.359899
3948.423,0.360812
3955.156,0.361391
3961.911,0.36238
3968.689,0.363759
3975.491,0.365018
3982.315,0.3666818
3989.163,0.368408
3996.035,0.3706125
4002.93,0.372589
4009.849,0.375007
4016.791,0.37712
4023.758,0.378975
4030.749,0.380684
4037.764,0.382599
4044.804,0.384388
4051.867,0.386478
4058.956,0.388135
4066.069,0.390072
4073.207,0.391964
4080.371,0.393988
4087.559,0.396258
4094.773,0.398456
4102.012,0.401009
4109.276,0.403409
4116.566,0.406164
4123.882,0.4090076
4131.224,0.411624
4138.592,0.414639
4145.987,0.4176209
4153.407,0.420653
4160.854,0.423876
4168.328,0.426627
4175.829,0.429208
4183.356,0.432227
4190.911,0.435726
4198.493,0.441673
4206.102,0.453259
4213.739,0.468127
4221.404,0.482139
4229.096,0.493213
4236.816,0.500902
4244.565,0.502021
4252.341,0.492741
4260.146,0.489388
4267.98,0.504144
4275.843,0.509153
4283.734,0.51188
4291.655,0.515697
4299.604,0.516684
4307.583,0.518707
4315.592,0.517519
4323.631,0.517077
4331.699,0.517131
4339.797,0.516553
4347.926,0.518213
4356.085,0.521026
4364.275,0.523705
4372.495,0.5275951
4380.746,0.531523
4389.029,0.536328
4397.342,0.5411861
4405.687,0.545834
4414.064,0.5511976
4422.472,0.555833
4430.913,0.559869
4439.386,0.564295
4447.891,0.567856
4456.428,0.571314
4464.998,0.574948
4473.602,0.578527
4482.238,0.581705
4490.908,0.584295
4499.611,0.587156
4508.347,0.590003
4517.118,0.592861
4525.923,0.595825
4534.762,0.599092
4543.635,0.601866
4552.543,0.6049936
4561.487,0.608611
4570.465,0.611402
4579.478,0.614298
4588.527,0.6178378
4597.612,0.621102
4606.732,0.625628
4615.889,0.628285
4625.082,0.631379
4634.312,0.634277
4643.578,0.638095
4652.882,0.6415149
4662.223,0.645253
4671.601,0.649754
4681.017,0.654597
4690.471,0.656331
4699.962,0.660793
4709.493,0.665487
4719.062,0.668427
4728.669,0.672096
4738.316,0.67567
4748.002,0.678519
4757.728,0.682698
4767.494,0.6867717
4777.299,0.690729
4787.145,0.69478
4797.032,0.698159
4806.959,0.70123
4816.927,0.705568
4826.937,0.70801
4836.988,0.70975
4847.081,0.713174
4857.216,0.717045
4867.393,0.719628
4877.613,0.721152
4887.876,0.724049
4898.182,0.728106
4908.532,0.7310412
4918.925,0.732567
4929.362,0.735855
4939.844,0.739073
4950.37,0.742384
4960.941,0.745002
4971.556,0.746281
4982.218,0.748792
4992.925,0.750889
5003.678,0.753904
5014.477,0.758014
5025.323,0.760773
5036.216,0.761522
5047.156,0.7639149
5058.143,0.766033
5069.179,0.768395
5080.262,0.772794
5091.394,0.774693
5102.574,0.776375
5113.804,0.77908
5125.083,0.781323
5136.412,0.785399
5147.791,0.7909638
5159.22,0.789869
5170.7,0.791658
5182.231,0.794027
5193.814,0.798747
5205.448,0.80455
5217.134,0.806498
5228.873,0.805877
5240.665,0.809694
5252.51,0.811016
5264.408,0.813935
5276.36,0.818395
5288.367,0.823124
5300.428,0.823796
5312.544,0.824661
5324.715,0.827619
5336.942,0.8320368
5349.226,0.842093
5361.566,0.8386069
5373.962,0.838705
5386.417,0.840921
5398.928,0.843582
5411.498,0.8517332
5424.127,0.859478
5436.814,0.855375
5449.561,0.860449
5462.368,0.8740656
5475.234,0.881812
5488.162,0.885946
5501.15,0.891477
5514.2,0.915479
5527.312,0.945557
5540.486,0.974125
5553.723,0.866992
5567.023,0.649508
5580.387,0.642282
5593.815,0.723057
5607.307,0.756929
5620.865,0.782702
5634.489,0.798377
5648.178,0.805329
5661.934,0.80989
5675.757,0.82082
5689.647,0.827235
5703.606,0.830255
5717.633,0.8372632
5731.729,0.841168
5745.894,0.847948
5760.13,0.856521
5774.436,0.860081
5788.813,0.857267
5803.262,0.863752
5817.782,0.877262
5832.376,0.876329
5847.043,0.875622
5861.783,0.885763
5876.598,0.894572
5891.488,0.895044
5906.454,0.889677
5921.495,0.894076
5936.613,0.90247
5951.809,0.899355
5967.082,0.901596
5982.433,0.9022244
5997.864,0.90144
6013.374,0.9032041
6028.964,0.904765
6044.636,0.91347
6060.389,0.912159
6076.224,0.912029
6092.141,0.911563
6108.143,0.918309
6124.228,0.916379
6140.398,0.918529
6156.654,0.921856
6172.996,0.92435
6189.424,0.926178
6205.94,0.927746
6222.544,0.929367
6239.237,0.93206
6256.02,0.93375
6272.893,0.9375033
6289.858,0.937762
6306.914,0.9392326
6324.062,0.94271
6341.304,0.945925
6358.64,0.947791
6376.071,0.948558
6393.598,0.949164
6411.221,0.9545758
6428.941,0.952677
6446.759,0.953313
6464.676,0.955411
6482.693,0.958471
6500.81,0.957874
6519.029,0.960866
6537.35,0.961354
6555.774,0.9622914
6574.302,0.964638
6592.934,0.96675
6611.673,0.969075
6630.518,0.970905
6649.47,0.96883
6668.532,0.971213
6687.702,0.972167
6706.983,0.97519
6726.375,0.974638
6745.879,0.975493
6765.497,0.977761
6785.229,0.97779
6805.076,0.978146
6825.039,0.980214
6845.12,0.981335
6865.319,0.982131
6885.637,0.982872
6906.076,0.984168
6926.636,0.984687
6947.319,0.985419
6968.125,0.986726
6989.057,0.988849
7010.114,0.989921
7031.298,0.990872
7052.611,0.992441
7074.052,0.9936708
7095.625,0.99453
7117.329,0.995938
7139.166,0.997251
7161.137,0.997705
7183.244,0.998813
7205.487,0.999869
7227.869,0.0100075
7250.39,0.0100202
7273.051,0.0100298
7295.854,0.0100427
7318.8,0.0100507
7341.891,0.0100603
7365.128,0.0100729
7388.512,0.0100912
7412.045,0.010107
7435.728,0.010118
7459.562,0.0101262
7483.55,0.0101365
7507.692,0.0101461
7531.99,0.0101554
7556.446,0.0101608
7581.061,0.0101665
7605.837,0.0101716
7630.774,0.0101742
7655.876,0.010176
7681.143,0.0101843
7706.577,0.0101907
7732.18,0.0101959
7757.953,0.0102066
7783.899,0.010217
7810.018,0.0102298
7836.313,0.0102441
7862.786,0.0102571
7889.437,0.0102711
7916.27,0.0102819
7943.285,0.0102925
7970.485,0.0103073
7997.872,0.0103211
8025.448,0.0103304
8053.214,0.0103409
8081.173,0.0103489
8109.326,0.0103563
8137.676,0.0103669
8166.224,0.0103761
8194.973,0.0103879
8223.925,0.0103989
8253.082,0.0104072
8282.446,0.0104199
8312.02,0.0104309
8341.805,0.0104438
8371.804,0.0104528
8402.02,0.010461
8432.454,0.0104681
8463.109,0.0104756
8493.988,0.010486
8525.092,0.0104909
8556.425,0.0104935
8587.989,0.0105001
8619.786,0.0105043
8651.819,0.0105074
8684.091,0.0105134
8716.604,0.0105202
8749.361,0.0105281
8782.365,0.0105357
8815.619,0.010547
8849.125,0.010558
8882.887,0.0105681
8916.907,0.0105767
8951.188,0.0105826
8985.733,0.0105875
9020.546,0.0105856
9055.629,0.0105781
9090.986,0.0105714
9126.62,0.0105656
9162.534,0.0105532
9198.731,0.010544
9235.215,0.0105379
9271.99,0.0105331
9309.058,0.0105317
9346.423,0.0105299
9384.089,0.0105297
9422.06,0.0105329
9460.339,0.0105352
9498.929,0.0105379
9537.836,0.0105391
9577.062,0.0105438
9616.612,0.0105473
9656.49,0.0105501
9696.699,0.0105533
9737.244,0.0105534
9778.129,0.0105528
9819.359,0.0105507
9860.938,0.010556
9902.869,0.010563
9945.159,0.0105654
9987.811,0.0105643
10030.83,0.0105671
10074.221,0.0105662
10117.988,0.0105694
10162.137,0.0105749
10206.672,0.0105795
10251.6,0.0105838
10296.924,0.0105869
10342.65,0.0105891
10388.784,0.0105942
10435.331,0.0105976
10482.296,0.0105941
10529.686,0.0105909
10577.505,0.0105926
10625.761,0.0105941
10674.458,0.0105927
10723.604,0.0105916
10773.203,0.0105958
10823.264,0.0105962
10873.791,0.0105968
10924.791,0.0105976
10976.272,0.0105979
11028.24,0.0105984
11080.702,0.0105933
11133.665,0.0105871
11187.137,0.0105801
11241.124,0.0105737
11295.634,0.0105731
11350.675,0.0105718
11406.254,0.0105628
11462.38,0.0105531
11519.06,0.0105446
11576.304,0.0105366
11634.118,0.0105329
11692.513,0.0105252
11751.496,0.0105211
11811.077,0.0105189
11871.265,0.01052
11932.068,0.0105227
11993.497,0.0105188
12055.562,0.0105226
12118.271,0.0105228
12181.636,0.0105185
12245.667,0.0105162
12310.373,0.0105117
12375.767,0.0105028
12441.859,0.0104982
12508.659,0.0104985
12576.18,0.0104949
12644.434,0.0104896
12713.432,0.0104878
12783.187,0.01049235
12853.71,0.0104947
12925.016,0.0104946
12997.116,0.0104978
13070.025,0.0105067
13143.756,0.0105125
13218.322,0.0105183
13293.74,0.0105173
13370.021,0.0105224
13447.183,0.0105256
13525.24,0.0105165
13604.208,0.0105057
13684.103,0.0104966
13764.941,0.0104775
13846.739,0.0104632
13929.515,0.0104605
14013.285,0.0104515
14098.068,0.0104409
14183.883,0.0104307
14270.749,0.0104136
14358.684,0.0104131
14447.709,0.010403
14537.844,0.0103711
14629.109,0.0103589
14721.528,0.0103508
14815.121,0.0103438
14909.91,0.0102064
15005.92,0.0102033
15103.173,0.0102538
15201.695,0.0101773
15301.509,0.0100712
15402.642,0.993742
15505.12,0.974431
15608.97,0.955528
15714.22,0.9066
15820.897,0.8592537
15929.033,0.81795
15965.407,0.78753