File: csv_library/FTIR_CARB_39_10.csv
Database of Origin,University of Winnipeg Spectrophotometer Facility
Sample Description,Carbonates and Oxolates -  D&P Spectra Reflectance spectra
Other Information,in air reference no window
Date Added,2018-08-06 21:11:30.5754

Data ID,FTIR_CARB_39_10
Sample ID,CRB215
Mineral Name,Hydromagnesite
Locality,Atlin/ British Columbia/ Canada
Grain Size,<45 um
Viewing Geometry,i=35/ e=0
Resolution,~3 cm-1
Formula,Mg5(CO3)4(OH)2*4(H2O)
Composition,XRD shows almost all hydromagnesite/ with a bit of magnesite.

Wavelength
2.001142,0.308856
2.003474,0.310357
2.005812,0.311401
2.008155,0.312234
2.010504,0.312397
2.012858,0.313436
2.015217,0.314457
2.017582,0.315149
2.019952,0.316729
2.022328,0.316994
2.024709,0.317841
2.027096,0.319188
2.029488,0.32004
2.031886,0.321867
2.034289,0.322524
2.036698,0.32355
2.039113,0.3249441
2.041533,0.326042
2.043959,0.326969
2.046391,0.326664
2.048828,0.328248
2.051271,0.328741
2.05372,0.330648
2.056175,0.330657
2.058635,0.331275
2.061101,0.331625
2.063573,0.33294
2.066051,0.333463
2.068534,0.3341
2.071024,0.333708
2.073519,0.334323
2.07602,0.335065
2.078528,0.335879
2.081041,0.3371296
2.08356,0.337598
2.086085,0.338511
2.088617,0.339032
2.091154,0.339373
2.093697,0.340046
2.096247,0.340439
2.098803,0.341964
2.101364,0.343066
2.103932,0.34462
2.106506,0.3464131
2.109087,0.347776
2.111673,0.34881
2.114266,0.349898
2.116865,0.35085
2.119471,0.351808
2.122082,0.352319
2.1247,0.352558
2.127325,0.3517917
2.129956,0.351621
2.132593,0.353458
2.135237,0.353831
2.137887,0.354453
2.140544,0.3555046
2.143207,0.355748
2.145876,0.355648
2.148553,0.355836
2.151235,0.356142
2.153925,0.356204
2.156621,0.3558895
2.159324,0.35671
2.162033,0.356582
2.164749,0.356654
2.167472,0.357189
2.170202,0.357193
2.172938,0.3572658
2.175682,0.356869
2.178432,0.356657
2.181189,0.356965
2.183952,0.356432
2.186723,0.356884
2.189501,0.3567894
2.192285,0.357208
2.195077,0.356302
2.197876,0.3564158
2.200682,0.355435
2.203494,0.351718
2.206314,0.354088
2.209141,0.357139
2.211975,0.357771
2.214817,0.357764
2.217665,0.357363
2.220521,0.357985
2.223384,0.357846
2.226254,0.357588
2.229132,0.357219
2.232017,0.356317
2.23491,0.355976
2.237809,0.354321
2.240717,0.352911
2.243631,0.351608
2.246554,0.349394
2.249483,0.346708
2.252421,0.345048
2.255365,0.34406
2.258318,0.344694
2.261278,0.344638
2.264246,0.344321
2.267221,0.343034
2.270204,0.341905
2.273195,0.340518
2.276194,0.339829
2.279201,0.339906
2.282215,0.340521
2.285237,0.340889
2.288268,0.340869
2.291306,0.340715
2.294352,0.340757
2.297406,0.34037
2.300468,0.339412
2.303539,0.338033
2.306617,0.335432
2.309703,0.33257
2.312798,0.329133
2.315901,0.326514
2.319012,0.3239926
2.322131,0.3235
2.325259,0.32245
2.328395,0.322194
2.33154,0.320616
2.334692,0.317887
2.337854,0.3162189
2.341023,0.315283
2.344201,0.314597
2.347388,0.313874
2.350583,0.312851
2.353787,0.311843
2.357,0.311777
2.360221,0.3111467
2.363451,0.311372
2.36669,0.31242
2.369937,0.313155
2.373194,0.313226
2.376459,0.312986
2.379733,0.31274
2.383016,0.312329
2.386308,0.3120747
2.389609,0.31177
2.392919,0.311003
2.396238,0.310687
2.399566,0.309696
2.402903,0.308645
2.40625,0.307134
2.409606,0.305523
2.412971,0.30364
2.416345,0.3017
2.419729,0.299718
2.423122,0.299002
2.426524,0.298126
2.429936,0.298294
2.433358,0.298906
2.436789,0.299862
2.440229,0.300232
2.443679,0.301411
2.447139,0.302787
2.450609,0.303892
2.454088,0.304958
2.457577,0.30549
2.461076,0.305315
2.464585,0.303699
2.468104,0.302678
2.471632,0.30085
2.475171,0.298488
2.47872,0.296133
2.482278,0.294485
2.485847,0.292737
2.489427,0.292132
2.493016,0.291559
2.496615,0.291231
2.500225,0.290533
2.503845,0.290162
2.507476,0.289191
2.511117,0.28772
2.514769,0.285718
2.518431,0.283663
2.522103,0.282924
2.525787,0.28294
2.52948,0.282994
2.533185,0.284474
2.5369,0.286313
2.540627,0.288317
2.544364,0.290026
2.548112,0.291224
2.55187,0.29251
2.55564,0.29221
2.559421,0.294299
2.563213,0.297313
2.567016,0.294784
2.570831,0.296155
2.574656,0.29793
2.578493,0.297486
2.582342,0.297803
2.586201,0.297674
2.590072,0.296732
2.593955,0.302137
2.597849,0.2977297
2.601755,0.29768
2.605672,0.300688
2.609601,0.297193
2.613542,0.295424
2.617495,0.297317
2.621459,0.29357
2.625435,0.2915
2.629424,0.292835
2.633424,0.290073
2.637437,0.287177
2.641461,0.286218
2.645498,0.285591
2.649547,0.283117
2.653609,0.282364
2.657682,0.2797996
2.661768,0.278882
2.665867,0.282313
2.669978,0.279869
2.674102,0.271493
2.678238,0.270715
2.682387,0.262058
2.686549,0.258791
2.690724,0.252001
2.694911,0.24994
2.699112,0.237192
2.703325,0.228025
2.707552,0.221177
2.711791,0.2161556
2.716044,0.201252
2.72031,0.200334
2.724589,0.190789
2.728882,0.171486
2.733188,0.148619
2.737508,0.09089229
2.741841,0.04850013
2.746188,0.06743551
2.750549,0.10339
2.754923,0.1218369
2.759311,0.120868
2.763713,0.115112
2.768129,0.107282
2.772559,0.09955238
2.777003,0.09285146
2.781461,0.08616511
2.785934,0.08023299
2.79042,0.07485338
2.794922,0.07027015
2.799437,0.06579493
2.803967,0.0609001
2.808512,0.0562932
2.813071,0.05072564
2.817645,0.04504123
2.822233,0.03886003
2.826837,0.03322925
2.831455,0.02669425
2.836089,0.02160545
2.840737,0.01865811
2.845401,0.01749745
2.85008,0.01826808
2.854774,0.01970897
2.859484,0.02083293
2.864209,0.02157685
2.868949,0.02102137
2.873705,0.02033801
2.878477,0.01952088
2.883265,0.01827118
2.888068,0.01746693
2.892887,0.01735024
2.897723,0.01682956
2.902574,0.01704929
2.907441,0.01710805
2.912325,0.01737807
2.917225,0.0188726
2.922142,0.01904164
2.927075,0.01867773
2.932024,0.01923069
2.93699,0.02005537
2.941973,0.02075743
2.946973,0.02244712
2.951989,0.02241006
2.957023,0.02358026
2.962073,0.02335793
2.967141,0.02446324
2.972226,0.02595424
2.977328,0.02852235
2.982448,0.02773744
2.987586,0.02855382
2.99274,0.03014243
2.997913,0.0297981
3.003103,0.03160431
3.008312,0.03110288
3.013538,0.03194709
3.018782,0.03199575
3.024044,0.03226848
3.029325,0.03362862
3.034624,0.03557328
3.039942,0.0335405
3.045278,0.03505508
3.050632,0.03363813
3.056006,0.03387134
3.061398,0.03462046
3.066809,0.03559656
3.072239,0.03388905
3.077689,0.0338026
3.083157,0.03385242
3.088645,0.0346237
3.094153,0.03404614
3.099679,0.03494762
3.105226,0.03408461
3.110792,0.03320591
3.116378,0.03289132
3.121985,0.03258048
3.127611,0.03225219
3.133257,0.03220982
3.138924,0.03222901
3.144611,0.03210903
3.150319,0.03225307
3.156047,0.03193642
3.161796,0.03213476
3.167566,0.03190968
3.173356,0.03169924
3.179168,0.03324289
3.185001,0.03292135
3.190856,0.03259263
3.196731,0.03351172
3.202629,0.03232293
3.208548,0.03223314
3.214488,0.03538698
3.220451,0.03509565
3.226436,0.03371153
3.232443,0.0326701
3.238472,0.03261783
3.244523,0.03317262
3.250598,0.03442114
3.256694,0.03579225
3.262814,0.03256391
3.268956,0.03275214
3.275122,0.03208323
3.28131,0.0317079
3.287522,0.03246235
3.293757,0.03324622
3.300016,0.0331505
3.306299,0.03293528
3.312605,0.03177176
3.318936,0.03203694
3.32529,0.03347352
3.331669,0.03468612
3.338072,0.03120217
3.344499,0.03186216
3.350952,0.03292566
3.357429,0.03148446
3.363931,0.03245721
3.370458,0.03248469
3.37701,0.031426
3.383588,0.03116264
3.390191,0.03147585
3.39682,0.03265371
3.403475,0.03401621
3.410156,0.03395147
3.416862,0.03261385
3.423596,0.03476316
3.430355,0.03466758
3.437141,0.0366219
3.443954,0.04008924
3.450794,0.03731304
3.457661,0.03823354
3.464556,0.03990906
3.471477,0.04009333
3.478426,0.04108995
3.485403,0.04219405
3.492408,0.04561619
3.499441,0.04425019
3.506502,0.04586397
3.513592,0.04710096
3.52071,0.0489264
3.527857,0.05011229
3.535032,0.05379253
3.542237,0.05305685
3.549471,0.05365341
3.556735,0.05476973
3.564028,0.05630049
3.571351,0.05821418
3.578704,0.05864667
3.586088,0.06100167
3.593501,0.06185976
3.600946,0.06299272
3.608421,0.06293942
3.615926,0.06526732
3.623463,0.06572633
3.631032,0.06678829
3.638632,0.06789411
3.646263,0.06933006
3.653927,0.07098025
3.661623,0.07106168
3.669351,0.07265243
3.677111,0.0738569
3.684905,0.07582821
3.692731,0.07605722
3.70059,0.07711112
3.708483,0.07807699
3.716409,0.07912104
3.72437,0.0800777
3.732364,0.08043035
3.740392,0.08135589
3.748455,0.0821107
3.756553,0.08168264
3.764685,0.08123703
3.772853,0.08147735
3.781056,0.0819659
3.789294,0.08247265
3.797568,0.08288618
3.805879,0.08430235
3.814225,0.08601289
3.822609,0.0887205
3.831029,0.09082594
3.839486,0.09203667
3.84798,0.09231124
3.856512,0.09196768
3.865081,0.09258254
3.873689,0.09341853
3.882334,0.09475228
3.891019,0.09615667
3.899742,0.09797721
3.908504,0.09984671
3.917305,0.101413
3.926146,0.10201
3.935027,0.102634
3.943948,0.104245
3.952909,0.108908
3.961911,0.115943
3.970954,0.122538
3.980038,0.128237
3.989163,0.132716
3.99833,0.136348
4.00754,0.139114
4.016791,0.141491
4.026086,0.144044
4.035423,0.146508
4.044804,0.148473
4.054228,0.150773
4.063695,0.152609
4.073207,0.15481
4.082764,0.156679
4.092365,0.158516
4.102012,0.160513
4.111703,0.162553
4.121441,0.164561
4.131224,0.166886
4.141054,0.169138
4.150931,0.17147
4.160854,0.173936
4.170826,0.176578
4.180844,0.179159
4.190911,0.1826906
4.201026,0.191293
4.21119,0.2084561
4.221404,0.228816
4.231666,0.246132
4.241979,0.252772
4.252341,0.23816
4.262754,0.234603
4.273219,0.250418
4.283734,0.25044
4.294301,0.2523026
4.30492,0.2508691
4.315592,0.24625
4.326317,0.2418532
4.337095,0.23816
4.347926,0.236657
4.358811,0.237394
4.369751,0.238879
4.380746,0.240911
4.391796,0.244859
4.402902,0.248877
4.414064,0.252963
4.425282,0.256906
4.436558,0.260514
4.447891,0.264157
4.459281,0.268122
4.47073,0.271602
4.482238,0.275201
4.493805,0.278839
4.505431,0.282845
4.517118,0.287001
4.528865,0.290836
4.540674,0.294702
4.552543,0.298055
4.564475,0.3016477
4.57647,0.305391
4.588527,0.30922
4.600648,0.3129261
4.612833,0.316691
4.625082,0.320694
4.637397,0.324614
4.649777,0.328478
4.662223,0.332364
4.674735,0.3368727
4.687315,0.340935
4.699962,0.345083
4.712678,0.3494111
4.725463,0.354081
4.738316,0.358036
4.75124,0.362177
4.764234,0.366156
4.777299,0.370441
4.790436,0.375122
4.803645,0.3786553
4.816927,0.38253
4.830283,0.386744
4.843712,0.392075
4.857216,0.394292
4.870795,0.397713
4.884451,0.40133
4.898182,0.40632
4.911991,0.408692
4.925878,0.412032
4.939844,0.415578
4.953888,0.42134
4.968013,0.4225541
4.982218,0.425133
4.996504,0.427912
5.010872,0.432887
5.025323,0.44021
5.039857,0.438607
5.054475,0.441842
5.069179,0.4453928
5.083967,0.453793
5.098842,0.452957
5.113804,0.456732
5.128854,0.4597698
5.143992,0.472128
5.15922,0.46809
5.174538,0.470274
5.189947,0.475393
5.205448,0.488162
5.221041,0.486357
5.236728,0.489734
5.25251,0.488871
5.268386,0.493715
5.284358,0.502303
5.300428,0.502899
5.316595,0.500868
5.33286,0.502754
5.349226,0.529572
5.365692,0.512691
5.382259,0.514234
5.398928,0.517957
5.415701,0.5447428
5.432579,0.536685
5.449561,0.535767
5.46665,0.560104
5.483846,0.546752
5.50115,0.5337
5.518564,0.536659
5.536087,0.525987
5.553723,0.522383
5.57147,0.515539
5.589332,0.607351
5.607307,0.605869
5.625399,0.602188
5.643607,0.623526
5.661934,0.597473
5.680379,0.605841
5.698945,0.607976
5.717633,0.63079
5.736443,0.62328
5.755377,0.636506
5.774436,0.638321
5.793621,0.6109
5.812934,0.6475027
5.832376,0.648599
5.851948,0.638255
5.871652,0.676273
5.891488,0.685569
5.911459,0.644227
5.931565,0.694124
5.951809,0.664004
5.97219,0.678921
5.992711,0.675858
6.013374,0.66873
6.034179,0.6866307
6.055129,0.71814
6.076224,0.6987926
6.097466,0.690816
6.118857,0.701446
6.140398,0.6930455
6.162091,0.702393
6.183938,0.711434
6.20594,0.694739
6.228099,0.696239
6.250416,0.696409
6.272893,0.701542
6.295533,0.702774
6.318336,0.7079735
6.341304,0.738237
6.36444,0.737248
6.387745,0.734862
6.411221,0.801285
6.434869,0.751635
6.458693,0.752628
6.482693,0.809258
6.506872,0.772142
6.531231,0.765376
6.555774,0.792255
6.580501,0.798536
6.605415,0.781295
6.630518,0.822568
6.655812,0.774614
6.6813,0.782379
6.706983,0.795969
6.732864,0.774378
6.758945,0.782588
6.785229,0.806404
6.811718,0.785329
6.838413,0.795468
6.865319,0.811664
6.892437,0.7889581
6.919769,0.78324
6.947319,0.802436
6.975089,0.798343
7.003081,0.798753
7.031298,0.817006
7.059743,0.807139
7.088419,0.803742
7.117329,0.810721
7.146475,0.825918
7.17586,0.820195
7.205487,0.82425
7.23536,0.820713
7.265481,0.8321238
7.295854,0.828441
7.326481,0.839294
7.357366,0.834156
7.388512,0.835339
7.419922,0.837568
7.451601,0.848798
7.48355,0.844565
7.515774,0.844796
7.548277,0.847834
7.581061,0.852978
7.614131,0.853494
7.647491,0.8538
7.681143,0.855867
7.715093,0.858125
7.749343,0.860564
7.783899,0.861789
7.818764,0.863539
7.853942,0.866555
7.889437,0.868719
7.925254,0.871131
7.961398,0.871736
7.997872,0.873316
8.034682,0.875194
8.071832,0.876627
8.109326,0.878262
8.147169,0.880114
8.185368,0.881553
8.223925,0.883144
8.262847,0.884442
8.302139,0.885956
8.341805,0.8874281
8.381852,0.889123
8.422285,0.8907485
8.463109,0.891551
8.504331,0.892428
8.545955,0.8934509
8.587989,0.894602
8.630437,0.8958859
8.673307,0.897238
8.716604,0.898578
8.760335,0.900211
8.804507,0.901188
8.849125,0.9022902
8.894198,0.903199
8.939732,0.904402
8.985733,0.905545
9.03221,0.906813
9.07917,0.907705
9.12662,0.9083515
9.174568,0.908842
9.223022,0.90869
9.27199,0.9089964
9.32148,0.909229
9.3715,0.909788
9.42206,0.910163
9.473167,0.91118
9.524832,0.912136
9.577062,0.912737
9.629868,0.913539
9.683259,0.914159
9.737244,0.914964
9.791834,0.9158516
9.847039,0.916727
9.902869,0.917515
9.959336,0.918478
10.0164,0.919502
10.0742,0.920714
10.1327,0.921841
10.1918,0.923174
10.2516,0.92419
10.3121,0.925065
10.37336,0.925843
10.4353,0.926645
10.498,0.927122
10.5615,0.927725
10.6258,0.928366
10.69079,0.929297
10.7566,0.929895
10.8233,0.930521
10.8907,0.930872
10.9591,0.931388
11.02824,0.931531
11.0983,0.932005
11.1693,0.932092
11.2411,0.932396
11.3139,0.933077
11.3877,0.933374
11.46238,0.934195
11.5381,0.934886
11.6148,0.9356979
11.6925,0.937147
11.77129,0.938748
11.8511,0.939817
11.9321,0.94084
12.0141,0.94138
12.0973,0.941654
12.1816,0.941504
12.26716,0.942059
12.3539,0.942389
12.4419,0.943806
12.5311,0.943799
12.6216,0.943995
12.7134,0.944826
12.8066,0.945693
12.9012,0.946869
12.9971,0.947765
13.09451,0.948448
13.1934,0.948715
13.29374,0.948962
13.3956,0.949226
13.4991,0.949352
13.6042,0.949502
13.7109,0.950555
13.8194,0.951221
13.9295,0.95194
14.0414,0.952729
14.1552,0.953469
14.2707,0.954135
14.3882,0.954932
14.5077,0.954412
14.6291,0.95368
14.7526,0.9512083
14.8782,0.951052
15.00592,0.94691
15.1359,0.938982
15.2681,0.930025
15.4026,0.913228
15.5396,0.88963
15.679,0.852134
15.8209,0.792714
15.9654,0.720423