File: csv_library/FTIR_MET_4_1.csv
Database of Origin,University of Winnipeg Spectrophotometer Facility
Sample Description,16. Meteorites. 16.1 Iron meteorites and components 16.1.2. UND samples.  (a) PSF D&P spectra
Other Information,only good to 4.3 um illum. spot larger than viewed spot (8mm)
Date Added,2018-07-23 23:32:11.4408

Data ID,FTIR_MET_4_1
Sample ID,Tucson
Mineral Name,Tucson
Grain Size,Slab
Viewing Geometry,i=30/ e=0
Resolution,6 cm-1
Composition,Rusty Side
Material Class,Iron Meteorite

Wavelength
2000.56,0.188917
2002.307,0.1884092
2004.058,0.188055
2005.812,0.18818
2007.569,0.187661
2009.329,0.187029
2011.092,0.186913
2012.858,0.1869001
2014.627,0.186364
2016.399,0.186568
2018.174,0.186539
2019.952,0.186124
2021.733,0.186099
2023.518,0.185739
2025.305,0.185427
2027.096,0.185277
2028.89,0.185353
2030.686,0.185254
2032.486,0.185187
2034.289,0.184898
2036.096,0.184799
2037.905,0.1848233
2039.718,0.184514
2041.533,0.184455
2043.352,0.184161
2045.174,0.183847
2047.0,0.183897
2048.828,0.183732
2050.66,0.183547
2052.495,0.1837516
2054.333,0.183527
2056.175,0.183292
2058.019,0.183478
2059.867,0.183602
2061.718,0.183125
2063.573,0.1829493
2065.431,0.182709
2067.292,0.182758
2069.156,0.182759
2071.024,0.182941
2072.895,0.183078
2074.769,0.182808
2076.647,0.182045
2078.528,0.182425
2080.412,0.182797
2082.3,0.182824
2084.191,0.182548
2086.085,0.182641
2087.983,0.182777
2089.885,0.182503
2091.789,0.181956
2093.697,0.181747
2095.609,0.181525
2097.524,0.181767
2099.443,0.181517
2101.364,0.18135
2103.29,0.18147
2105.219,0.181516
2107.151,0.181074
2109.087,0.180625
2111.026,0.18026
2112.969,0.179973
2114.915,0.179753
2116.865,0.180047
2118.819,0.180069
2120.776,0.17988
2122.736,0.179928
2124.7,0.180058
2126.668,0.180014
2128.64,0.180006
2130.614,0.179858
2132.593,0.179676
2134.575,0.179369
2136.561,0.179381
2138.55,0.17957
2140.544,0.179144
2142.54,0.179071
2144.541,0.179062
2146.545,0.178804
2148.553,0.178792
2150.564,0.178919
2152.579,0.179141
2154.598,0.179301
2156.621,0.179377
2158.647,0.179414
2160.678,0.179184
2162.712,0.179374
2164.749,0.1794725
2166.791,0.179469
2168.836,0.179443
2170.885,0.179643
2172.938,0.179726
2174.995,0.179673
2177.056,0.179291
2179.12,0.1794065
2181.189,0.179562
2183.261,0.179476
2185.337,0.179694
2187.417,0.17959
2189.501,0.1797902
2191.589,0.179753
2193.68,0.179628
2195.776,0.179692
2197.876,0.17961
2199.979,0.179463
2202.087,0.179689
2204.199,0.179818
2206.314,0.179693
2208.434,0.179786
2210.557,0.179967
2212.685,0.180205
2214.817,0.179565
2216.952,0.17958
2219.092,0.179782
2221.236,0.179507
2223.384,0.179651
2225.536,0.179374
2227.692,0.179303
2229.853,0.17915
2232.017,0.179103
2234.186,0.179055
2236.359,0.178948
2238.536,0.178735
2240.717,0.178923
2242.902,0.178987
2245.092,0.178674
2247.285,0.178502
2249.483,0.178193
2251.686,0.1784777
2253.892,0.177953
2256.103,0.177868
2258.318,0.1779495
2260.537,0.177976
2262.761,0.177865
2264.989,0.1776
2267.221,0.177496
2269.458,0.177524
2271.699,0.177581
2273.944,0.177622
2276.194,0.177286
2278.448,0.177536
2280.707,0.177669
2282.97,0.1774312
2285.237,0.177154
2287.509,0.17699
2289.786,0.176982
2292.067,0.177061
2294.352,0.177185
2296.642,0.176786
2298.936,0.176842
2301.235,0.176655
2303.539,0.176601
2305.847,0.176159
2308.159,0.176399
2310.476,0.176622
2312.798,0.176527
2315.124,0.176674
2317.455,0.176731
2319.791,0.1768812
2322.131,0.176778
2324.476,0.17707
2326.826,0.177146
2329.18,0.177264
2331.54,0.177048
2333.903,0.177024
2336.272,0.177107
2338.645,0.177078
2341.023,0.176991
2343.406,0.177008
2345.794,0.177228
2348.186,0.177046
2350.583,0.176882
2352.986,0.177124
2355.393,0.177335
2357.804,0.177242
2360.221,0.177122
2362.643,0.177054
2365.069,0.17697
2367.501,0.176769
2369.937,0.176886
2372.379,0.177129
2374.825,0.17715
2377.276,0.177014
2379.733,0.1770162
2382.194,0.176927
2384.661,0.176967
2387.132,0.176909
2389.609,0.176896
2392.09,0.1766346
2394.577,0.176599
2397.069,0.176529
2399.566,0.176708
2402.068,0.176669
2404.575,0.176544
2407.088,0.176392
2409.606,0.176431
2412.128,0.17659
2414.657,0.176661
2417.19,0.1767628
2419.729,0.17656
2422.272,0.176618
2424.822,0.176745
2427.376,0.176794
2429.936,0.176607
2432.501,0.1768096
2435.072,0.176957
2437.648,0.176811
2440.229,0.1769614
2442.816,0.177343
2445.408,0.177371
2448.006,0.176984
2450.609,0.177084
2453.217,0.177339
2455.831,0.177104
2458.451,0.176882
2461.076,0.176918
2463.707,0.177183
2466.343,0.177278
2468.985,0.177206
2471.632,0.177438
2474.285,0.177699
2476.944,0.177739
2479.608,0.177756
2482.278,0.1779707
2484.954,0.178117
2487.636,0.178402
2490.323,0.178417
2493.016,0.178556
2495.715,0.178524
2498.419,0.178346
2501.129,0.178483
2503.845,0.1791326
2506.567,0.178946
2509.295,0.179049
2512.029,0.17931
2514.769,0.179418
2517.514,0.179573
2520.266,0.179492
2523.023,0.180075
2525.787,0.180178
2528.556,0.180399
2531.331,0.182064
2534.113,0.182427
2536.9,0.181676
2539.694,0.180986
2542.494,0.183728
2545.3,0.1828984
2548.112,0.183623
2550.93,0.184781
2553.754,0.183067
2556.585,0.1810227
2559.421,0.187117
2562.264,0.195245
2565.113,0.187542
2567.969,0.185955
2570.831,0.188254
2573.699,0.190412
2576.573,0.188936
2579.454,0.186537
2582.342,0.193093
2585.235,0.193417
2588.135,0.190737
2591.042,0.18815
2593.955,0.207905
2596.874,0.195295
2599.8,0.186212
2602.733,0.194046
2605.672,0.199348
2608.618,0.192127
2611.57,0.18792
2614.529,0.19193
2617.495,0.199234
2620.467,0.194423
2623.446,0.187047
2626.431,0.1926095
2629.424,0.197497
2632.423,0.194699
2635.429,0.187926
2638.442,0.185594
2641.461,0.187291
2644.488,0.189568
2647.521,0.1885827
2650.561,0.1887
2653.609,0.192759
2656.663,0.190638
2659.724,0.193604
2662.792,0.197254
2665.867,0.2129952
2668.949,0.214268
2672.038,0.205957
2675.135,0.203697
2678.238,0.210854
2681.349,0.197573
2684.467,0.199449
2687.591,0.198681
2690.724,0.197642
2693.863,0.211421
2697.01,0.207662
2700.164,0.207747
2703.325,0.212127
2706.494,0.217044
2709.67,0.244528
2712.853,0.240242
2716.044,0.228643
2719.242,0.259422
2722.448,0.271544
2725.661,0.246563
2728.882,0.215478
2732.111,0.208212
2735.347,0.208828
2738.59,0.214289
2741.841,0.210739
2745.1,0.183233
2748.367,0.176679
2751.641,0.174809
2754.923,0.1828495
2758.213,0.171107
2761.51,0.166081
2764.816,0.165845
2768.129,0.1618872
2771.45,0.159007
2774.779,0.151649
2778.116,0.149384
2781.461,0.148111
2784.814,0.146234
2788.175,0.146522
2791.544,0.139029
2794.922,0.135662
2798.307,0.133695
2801.7,0.135149
2805.102,0.135199
2808.512,0.12897
2811.93,0.126502
2815.356,0.1251491
2818.791,0.123985
2822.233,0.122234
2825.685,0.1191936
2829.144,0.118001
2832.612,0.11689
2836.089,0.116281
2839.574,0.114381
2843.067,0.112317
2846.569,0.11105
2850.08,0.110066
2853.599,0.109442
2857.127,0.107776
2860.664,0.1066082
2864.209,0.105731
2867.763,0.1045842
2871.325,0.10392
2874.897,0.103184
2878.477,0.102415
2882.066,0.101522
2885.664,0.100561
2889.271,0.100614
2892.887,0.09954711
2896.512,0.09828224
2900.146,0.09801048
2903.789,0.0977498
2907.441,0.09694566
2911.103,0.09644135
2914.773,0.09602086
2918.453,0.09620539
2922.142,0.09555535
2925.84,0.09466103
2929.547,0.09397494
2933.264,0.09372344
2936.99,0.09366111
2940.726,0.0934393
2944.471,0.09327848
2948.225,0.09424781
2951.989,0.0929374
2955.763,0.09345756
2959.546,0.09226309
2963.339,0.09164066
2967.141,0.09191661
2970.953,0.09172848
2974.775,0.09268385
2978.607,0.09233781
2982.448,0.09126287
2986.3,0.09105158
2990.161,0.0915711
2994.032,0.09186865
2997.913,0.09187722
3001.804,0.09231286
3005.705,0.0918832
3009.616,0.09151075
3013.538,0.09201111
3017.469,0.09219546
3021.411,0.09212268
3025.363,0.09208772
3029.325,0.0934381
3033.298,0.0947847
3037.281,0.09325985
3041.274,0.09377711
3045.278,0.09462167
3049.292,0.09400999
3053.317,0.0938993
3057.352,0.0942431
3061.398,0.09481152
3065.455,0.09601866
3069.522,0.09591633
3073.6,0.09572801
3077.689,0.09624423
3081.788,0.096752
3085.899,0.09699894
3090.02,0.09733881
3094.153,0.09714742
3098.296,0.09803208
3102.45,0.09881822
3106.616,0.09831247
3110.792,0.09864694
3114.98,0.09899864
3119.179,0.0991388
3123.389,0.09927046
3127.611,0.09976873
3131.844,0.100195
3136.088,0.1003172
3140.344,0.100936
3144.611,0.101338
3148.89,0.101942
3153.18,0.102437
3157.482,0.102871
3161.796,0.103389
3166.121,0.10387
3170.458,0.104184
3174.807,0.104801
3179.168,0.10624
3183.541,0.107075
3187.926,0.106542
3192.323,0.107533
3196.731,0.108213
3201.152,0.108369
3205.585,0.109068
3210.031,0.1097742
3214.488,0.11207
3218.958,0.112772
3223.441,0.111969
3227.936,0.112276
3232.443,0.112358
3236.963,0.113042
3241.495,0.1132485
3246.04,0.114459
3250.598,0.115649
3255.168,0.117024
3259.751,0.117075
3264.347,0.116036
3268.956,0.117016
3273.578,0.1173842
3278.213,0.1173142
3282.861,0.118345
3287.522,0.119113
3292.196,0.119862
3296.884,0.121214
3301.585,0.120842
3306.299,0.121328
3311.026,0.121334
3315.767,0.121826
3320.522,0.122191
3325.29,0.12345
3330.072,0.1246562
3334.867,0.123376
3339.676,0.123123
3344.499,0.123579
3349.336,0.12411
3354.187,0.123743
3359.052,0.122648
3363.931,0.122777
3368.824,0.121737
3373.731,0.119684
3378.652,0.1179664
3383.588,0.117463
3388.538,0.1178538
3393.502,0.1185787
3398.481,0.118479
3403.475,0.117052
3408.483,0.114221
3413.506,0.109897
3418.543,0.107635
3423.596,0.108477
3428.663,0.111277
3433.745,0.115832
3438.842,0.121069
3443.954,0.12505
3449.082,0.1255839
3454.224,0.126955
3459.382,0.128702
3464.556,0.1307528
3469.744,0.131637
3474.948,0.131925
3480.168,0.131749
3485.403,0.1317881
3490.654,0.132753
3495.921,0.1307464
3501.204,0.127432
3506.502,0.126531
3511.817,0.12963
3517.147,0.135236
3522.494,0.140149
3527.857,0.143116
3533.236,0.146133
3538.631,0.14764
3544.043,0.148273
3549.471,0.149165
3554.916,0.150436
3560.378,0.151524
3565.856,0.152554
3571.351,0.153871
3576.863,0.154583
3582.392,0.1557479
3587.938,0.1568777
3593.501,0.15766
3599.082,0.1586699
3604.679,0.158896
3610.294,0.159689
3615.926,0.160983
3621.576,0.161526
3627.244,0.1621505
3632.929,0.1628386
3638.632,0.163678
3644.353,0.164566
3650.091,0.1658241
3655.848,0.166362
3661.623,0.16687
3667.416,0.167918
3673.227,0.168744
3679.057,0.17013
3684.905,0.171311
3690.771,0.1718396
3696.656,0.172729
3702.56,0.173781
3708.483,0.174768
3714.425,0.175603
3720.385,0.176756
3726.365,0.177654
3732.364,0.178711
3738.382,0.179924
3744.419,0.181353
3750.476,0.182468
3756.553,0.183242
3762.649,0.1843474
3768.764,0.185676
3774.9,0.18702
3781.056,0.188021
3787.231,0.18917
3793.427,0.190501
3799.643,0.191594
3805.879,0.192894
3812.135,0.19402
3818.412,0.195117
3824.71,0.196339
3831.029,0.1973916
3837.368,0.198582
3843.728,0.199636
3850.109,0.200764
3856.512,0.201958
3862.935,0.203215
3869.38,0.204516
3875.846,0.20565
3882.334,0.206931
3888.844,0.208206
3895.375,0.209438
3901.929,0.210573
3908.504,0.211777
3915.101,0.212785
3921.721,0.214132
3928.363,0.215476
3935.027,0.216794
3941.714,0.218224
3948.423,0.219354
3955.156,0.220584
3961.911,0.222081
3968.689,0.223787
3975.491,0.22545
3982.315,0.226978
3989.163,0.228328
3996.035,0.230044
4002.93,0.231839
4009.849,0.233352
4016.791,0.234742
4023.758,0.236072
4030.749,0.23749
4037.764,0.239171
4044.804,0.2409084
4051.867,0.2426422
4058.956,0.244594
4066.069,0.246673
4073.207,0.248587
4080.371,0.250676
4087.559,0.252731
4094.773,0.254876
4102.012,0.257168
4109.276,0.259497
4116.566,0.261711
4123.882,0.264127
4131.224,0.26668
4138.592,0.26946
4145.987,0.27196
4153.407,0.274647
4160.854,0.277716
4168.328,0.280389
4175.829,0.283397
4183.356,0.286409
4190.911,0.290458
4198.493,0.298338
4206.102,0.31506
4213.739,0.340935
4221.404,0.370819
4229.096,0.399183
4236.816,0.415529
4244.565,0.4096094
4252.341,0.376678
4260.146,0.3619639
4267.98,0.39086
4275.843,0.402642
4283.734,0.403026
4291.655,0.4039137
4299.604,0.399483
4307.583,0.395085
4315.592,0.386984
4323.631,0.3802462
4331.699,0.375537
4339.797,0.3723
4347.926,0.371549
4356.085,0.372793
4364.275,0.374609
4372.495,0.376497
4380.746,0.379136
4389.029,0.383453
4397.342,0.388168
4405.687,0.392503
4414.064,0.396689
4422.472,0.401298
4430.913,0.405449
4439.386,0.4085781
4447.891,0.412273
4456.428,0.4159278
4464.998,0.418597
4473.602,0.42129
4482.238,0.4241
4490.908,0.426544
4499.611,0.428828
4508.347,0.4309798
4517.118,0.43358
4525.923,0.4365111
4534.762,0.439478
4543.635,0.442276
4552.543,0.445148
4561.487,0.448354
4570.465,0.451024
4579.478,0.453929
4588.527,0.457095
4597.612,0.45977
4606.732,0.4630692
4615.889,0.466246
4625.082,0.4695589
4634.312,0.472667
4643.578,0.475975
4652.882,0.479801
4662.223,0.482771
4671.601,0.486152
4681.017,0.49003
4690.471,0.4935759
4699.962,0.496898
4709.493,0.500378
4719.062,0.504306
4728.669,0.508507
4738.316,0.5117261
4748.002,0.514768
4757.728,0.517431
4767.494,0.520722
4777.299,0.524139
4787.145,0.527014
4797.032,0.529553
4806.959,0.533008
4816.927,0.535906
4826.937,0.538383
4836.988,0.541999
4847.081,0.544978
4857.216,0.546411
4867.393,0.548994
4877.613,0.552116
4887.876,0.555026
4898.182,0.55835
4908.532,0.559581
4918.925,0.562153
4929.362,0.565506
4939.844,0.567353
4950.37,0.571336
4960.941,0.574484
4971.556,0.575504
4982.218,0.577931
4992.925,0.580717
5003.678,0.583877
5014.477,0.589748
5025.323,0.593747
5036.216,0.590606
5047.156,0.592187
5058.143,0.59494
5069.179,0.597475
5080.262,0.603294
5091.394,0.604352
5102.574,0.605353
5113.804,0.6081243
5125.083,0.610193
5136.412,0.615209
5147.791,0.623326
5159.22,0.618876
5170.7,0.620391
5182.231,0.622369
5193.814,0.629455
5205.448,0.638277
5217.134,0.639525
5228.873,0.636726
5240.665,0.640989
5252.51,0.640098
5264.408,0.643722
5276.36,0.649831
5288.367,0.656602
5300.428,0.655425
5312.544,0.654856
5324.715,0.657742
5336.942,0.6633842
5349.226,0.683772
5361.566,0.67439
5373.962,0.672141
5386.417,0.676112
5398.928,0.682715
5411.498,0.704547
5424.127,0.729903
5436.814,0.728341
5449.561,0.76047
5462.368,0.833249
5475.234,0.923127
5488.162,0.0104478
5501.15,0.0133068
5514.2,0.0210239
5527.312,0.0161306
5540.486,0.602153
5553.723,0.213146
5567.023,0.134534
5580.387,0.176094
5593.815,0.229659
5607.307,0.271245
5620.865,0.3055926
5634.489,0.330498
5648.178,0.352926
5661.934,0.375715
5675.757,0.391521
5689.647,0.405597
5703.606,0.4173
5717.633,0.430508
5731.729,0.442108
5745.894,0.4512322
5760.13,0.45772
5774.436,0.467011
5788.813,0.475997
5803.262,0.48363
5817.782,0.4908136
5832.376,0.4982628
5847.043,0.505489
5861.783,0.5133991
5876.598,0.517378
5891.488,0.521068
5906.454,0.526168
5921.495,0.532935
5936.613,0.537712
5951.809,0.541352
5967.082,0.545275
5982.433,0.549509
5997.864,0.549872
6013.374,0.55283
6028.964,0.555083
6044.636,0.556963
6060.389,0.561683
6076.224,0.563533
6092.141,0.564177
6108.143,0.570023
6124.228,0.569035
6140.398,0.573683
6156.654,0.57814
6172.996,0.581349
6189.424,0.585627
6205.94,0.5916155
6222.544,0.596753
6239.237,0.600667
6256.02,0.604955
6272.893,0.6098285
6289.858,0.61313
6306.914,0.616815
6324.062,0.622244
6341.304,0.627578
6358.64,0.631773
6376.071,0.636029
6393.598,0.640855
6411.221,0.649787
6428.941,0.649075
6446.759,0.651941
6464.676,0.658991
6482.693,0.66675
6500.81,0.6661456
6519.029,0.671782
6537.35,0.675721
6555.774,0.683548
6574.302,0.688508
6592.934,0.69138
6611.673,0.69561
6630.518,0.701531
6649.47,0.696393
6668.532,0.701515
6687.702,0.702544
6706.983,0.710028
6726.375,0.708266
6745.879,0.708714
6765.497,0.714936
6785.229,0.71818
6805.076,0.714636
6825.039,0.71783
6845.12,0.723938
6865.319,0.725742
6885.637,0.723455
6906.076,0.726154
6926.636,0.726511
6947.319,0.733674
6968.125,0.736169
6989.057,0.737781
7010.114,0.740392
7031.298,0.74702
7052.611,0.74849
7074.052,0.747641
7095.625,0.750957
7117.329,0.754833
7139.166,0.760603
7161.137,0.764945
7183.244,0.766128
7205.487,0.7705395
7227.869,0.771822
7250.39,0.777009
7273.051,0.7815968
7295.854,0.782324
7318.8,0.787212
7341.891,0.790048
7365.128,0.790604
7388.512,0.793226
7412.045,0.796028
7435.728,0.800082
7459.562,0.805815
7483.55,0.806611
7507.692,0.808697
7531.99,0.811029
7556.446,0.813939
7581.061,0.816974
7605.837,0.819263
7630.774,0.820823
7655.876,0.822723
7681.143,0.825096
7706.577,0.827635
7732.18,0.829642
7757.953,0.831592
7783.899,0.833456
7810.018,0.835389
7836.313,0.837467
7862.786,0.83957
7889.437,0.841015
7916.27,0.843116
7943.285,0.845814
7970.485,0.848224
7997.872,0.850819
8025.448,0.8532499
8053.214,0.85519
8081.173,0.857145
8109.326,0.858751
8137.676,0.860414
8166.224,0.861699
8194.973,0.86283
8223.925,0.863956
8253.082,0.8652411
8282.446,0.86639
8312.02,0.86741
8341.805,0.868691
8371.804,0.870189
8402.02,0.8715147
8432.454,0.872653
8463.109,0.873169
8493.988,0.873917
8525.092,0.874889
8556.425,0.875615
8587.989,0.876518
8619.786,0.877606
8651.819,0.878561
8684.091,0.8792918
8716.604,0.880037
8749.361,0.881011
8782.365,0.882051
8815.619,0.882972
8849.125,0.883851
8882.887,0.885003
8916.907,0.886197
8951.188,0.886857
8985.733,0.887355
9020.546,0.887695
9055.629,0.88792
9090.986,0.887815
9126.62,0.887583
9162.534,0.887098
9198.731,0.886655
9235.215,0.886533
9271.99,0.886553
9309.058,0.886864
9346.423,0.887438
9384.089,0.8884995
9422.06,0.889527
9460.339,0.890877
9498.929,0.892445
9537.836,0.894412
9577.062,0.895861
9616.612,0.897101
9656.49,0.898435
9696.699,0.899865
9737.244,0.901039
9778.129,0.902384
9819.359,0.903794
9860.938,0.904931
9902.869,0.905863
9945.159,0.907143
9987.811,0.908262
10030.83,0.909243
10074.221,0.910144
10117.988,0.911057
10162.137,0.912105
10206.672,0.913121
10251.6,0.914189
10296.924,0.915139
10342.65,0.915751
10388.784,0.916335
10435.331,0.916739
10482.296,0.917147
10529.686,0.917234
10577.505,0.917331
10625.761,0.917239
10674.458,0.916732
10723.604,0.916323
10773.203,0.91601
10823.264,0.915198
10873.791,0.914468
10924.791,0.913898
10976.272,0.913183
11028.24,0.912041
11080.702,0.911404
11133.665,0.910892
11187.137,0.910381
11241.124,0.909506
11295.634,0.909291
11350.675,0.908887
11406.254,0.908448
11462.38,0.908151
11519.06,0.907583
11576.304,0.907412
11634.118,0.907221
11692.513,0.906664
11751.496,0.906706
11811.077,0.906554
11871.265,0.90636
11932.068,0.906912
11993.497,0.907043
12055.562,0.906372
12118.271,0.905618
12181.636,0.905101
12245.667,0.904314
12310.373,0.903724
12375.767,0.903138
12441.859,0.902684
12508.659,0.902607
12576.18,0.902676
12644.434,0.902628
12713.432,0.902285
12783.187,0.902207
12853.71,0.901732
12925.016,0.901342
12997.116,0.900449
13070.025,0.899305
13143.756,0.898442
13218.322,0.897509
13293.74,0.896565
13370.021,0.895739
13447.183,0.894248
13525.24,0.892101
13604.208,0.890374
13684.103,0.888172
13764.941,0.885433
13846.739,0.882324
13929.515,0.8784409
14013.285,0.87358
14098.068,0.868388
14183.883,0.8619283
14270.749,0.854463
14358.684,0.845228
14447.709,0.834042
14537.844,0.82092
14629.109,0.804776
14721.528,0.784703
14815.121,0.7626724
14909.91,0.725632
15005.92,0.691604
15103.173,0.654394
15201.695,0.598871
15301.509,0.531503
15402.642,0.4593985
15505.12,0.392184
15608.97,0.325538
15714.22,0.267947
15820.897,0.22069
15929.033,0.181614
15965.407,0.171505