File: csv_library/FTIR_PYX_08.csv
Database of Origin,University of Winnipeg Spectrophotometer Facility
Sample Description,"HOSERLab master pyroxenes, FTIR data"
Date Added,2016-12-14 03:34:49.7336

Data ID,FTIR_PYX_08
Sample ID,PYX042
Mineral Name,Orthopyroxene
Grain Size,45-90 um
Viewing Geometry,"i=30, e=0"
Material Class,Inosilicate

Wavelength
2000.56,0.269192
2002.307,0.269883
2004.058,0.271242
2005.812,0.2723237
2007.569,0.27295
2009.329,0.2742371
2011.092,0.275202
2012.858,0.276553
2014.627,0.278018
2016.399,0.278825
2018.174,0.280269
2019.952,0.281753
2021.733,0.281963
2023.518,0.283097
2025.305,0.284705
2027.096,0.286355
2028.89,0.286978
2030.686,0.288413
2032.486,0.289625
2034.289,0.2911632
2036.096,0.292293
2037.905,0.293622
2039.718,0.295292
2041.533,0.296653
2043.352,0.2980558
2045.174,0.299515
2047.0,0.301221
2048.828,0.302671
2050.66,0.304284
2052.495,0.30596
2054.333,0.307344
2056.175,0.309042
2058.019,0.310694
2059.867,0.312123
2061.718,0.313434
2063.573,0.314548
2065.431,0.3163202
2067.292,0.31775
2069.156,0.318968
2071.024,0.320706
2072.895,0.322798
2074.769,0.324347
2076.647,0.325901
2078.528,0.327567
2080.412,0.329533
2082.3,0.331685
2084.191,0.333574
2086.085,0.334881
2087.983,0.336972
2089.885,0.339278
2091.789,0.3405237
2093.697,0.342664
2095.609,0.34445
2097.524,0.3462683
2099.443,0.348694
2101.364,0.3502025
2103.29,0.352031
2105.219,0.353725
2107.151,0.356064
2109.087,0.357914
2111.026,0.359733
2112.969,0.361428
2114.915,0.363318
2116.865,0.36513
2118.819,0.367297
2120.776,0.369147
2122.736,0.371014
2124.7,0.373322
2126.668,0.375094
2128.64,0.377237
2130.614,0.379741
2132.593,0.3819584
2134.575,0.383769
2136.561,0.385499
2138.55,0.387363
2140.544,0.389769
2142.54,0.392107
2144.541,0.394626
2146.545,0.396706
2148.553,0.398605
2150.564,0.400804
2152.579,0.402579
2154.598,0.404992
2156.621,0.407387
2158.647,0.409498
2160.678,0.412168
2162.712,0.414356
2164.749,0.416405
2166.791,0.418041
2168.836,0.420428
2170.885,0.423135
2172.938,0.4252
2174.995,0.4271854
2177.056,0.429816
2179.12,0.432501
2181.189,0.433736
2183.261,0.436089
2185.337,0.438601
2187.417,0.440712
2189.501,0.443102
2191.589,0.445553
2193.68,0.447525
2195.776,0.449647
2197.876,0.452
2199.979,0.454393
2202.087,0.456115
2204.199,0.458676
2206.314,0.460659
2208.434,0.463479
2210.557,0.4656956
2212.685,0.4671176
2214.817,0.469481
2216.952,0.4712
2219.092,0.473465
2221.236,0.475893
2223.384,0.476848
2225.536,0.47898
2227.692,0.481013
2229.853,0.482819
2232.017,0.484264
2234.186,0.485883
2236.359,0.487696
2238.536,0.490111
2240.717,0.492367
2242.902,0.493737
2245.092,0.495605
2247.285,0.497558
2249.483,0.4998647
2251.686,0.501345
2253.892,0.502933
2256.103,0.504683
2258.318,0.506482
2260.537,0.508118
2262.761,0.509648
2264.989,0.510857
2267.221,0.51161
2269.458,0.513023
2271.699,0.514241
2273.944,0.51583
2276.194,0.517155
2278.448,0.518096
2280.707,0.518869
2282.97,0.519193
2285.237,0.518854
2287.509,0.518673
2289.786,0.519927
2292.067,0.521908
2294.352,0.524672
2296.642,0.525586
2298.936,0.52613
2301.235,0.526529
2303.539,0.526193
2305.847,0.525359
2308.159,0.524377
2310.476,0.523813
2312.798,0.524788
2315.124,0.528398
2317.455,0.531975
2319.791,0.534627
2322.131,0.536872
2324.476,0.539894
2326.826,0.543335
2329.18,0.545658
2331.54,0.547759
2333.903,0.550208
2336.272,0.552485
2338.645,0.553949
2341.023,0.556318
2343.406,0.558366
2345.794,0.559996
2348.186,0.56195
2350.583,0.564194
2352.986,0.565331
2355.393,0.566774
2357.804,0.5681846
2360.221,0.569642
2362.643,0.5709384
2365.069,0.5717299
2367.501,0.572396
2369.937,0.572539
2372.379,0.572523
2374.825,0.572883
2377.276,0.573018
2379.733,0.573401
2382.194,0.573339
2384.661,0.5745471
2387.132,0.575448
2389.609,0.575855
2392.09,0.577044
2394.577,0.578602
2397.069,0.580238
2399.566,0.581766
2402.068,0.583504
2404.575,0.584714
2407.088,0.586104
2409.606,0.586948
2412.128,0.587347
2414.657,0.588201
2417.19,0.588961
2419.729,0.589556
2422.272,0.589072
2424.822,0.589357
2427.376,0.590016
2429.936,0.590511
2432.501,0.5907438
2435.072,0.591111
2437.648,0.591536
2440.229,0.59197
2442.816,0.592529
2445.408,0.592915
2448.006,0.5932
2450.609,0.59375
2453.217,0.59363
2455.831,0.593864
2458.451,0.594018
2461.076,0.593859
2463.707,0.59427
2466.343,0.5945707
2468.985,0.594689
2471.632,0.595758
2474.285,0.596067
2476.944,0.596686
2479.608,0.59668
2482.278,0.5972201
2484.954,0.597768
2487.636,0.597768
2490.323,0.597944
2493.016,0.597163
2495.715,0.59728
2498.419,0.597208
2501.129,0.597063
2503.845,0.59741
2506.567,0.59691
2509.295,0.596936
2512.029,0.597303
2514.769,0.597477
2517.514,0.597145
2520.266,0.59714
2523.023,0.597789
2525.787,0.597281
2528.556,0.59758
2531.331,0.597545
2534.113,0.597686
2536.9,0.598341
2539.694,0.599117
2542.494,0.598038
2545.3,0.599121
2548.112,0.59886
2550.93,0.599269
2553.754,0.598898
2556.585,0.598889
2559.421,0.598062
2562.264,0.596824
2565.113,0.597286
2567.969,0.598713
2570.831,0.598089
2573.699,0.597565
2576.573,0.597466
2579.454,0.598514
2582.342,0.596803
2585.235,0.595843
2588.135,0.596722
2591.042,0.599028
2593.955,0.600275
2596.874,0.59562
2599.8,0.598345
2602.733,0.598867
2605.672,0.597864
2608.618,0.597085
2611.57,0.597721
2614.529,0.598221
2617.495,0.596798
2620.467,0.596615
2623.446,0.597732
2626.431,0.597652
2629.424,0.59699
2632.423,0.5955475
2635.429,0.596002
2638.442,0.596916
2641.461,0.596202
2644.488,0.595629
2647.521,0.594747
2650.561,0.595224
2653.609,0.592815
2656.663,0.591573
2659.724,0.590264
2662.792,0.589397
2665.867,0.5869774
2668.949,0.583918
2672.038,0.578133
2675.135,0.574592
2678.238,0.563772
2681.349,0.553007
2684.467,0.537368
2687.591,0.517876
2690.724,0.496159
2693.863,0.4683434
2697.01,0.428636
2700.164,0.392741
2703.325,0.354537
2706.494,0.327101
2709.67,0.3147531
2712.853,0.301077
2716.044,0.288249
2719.242,0.270983
2722.448,0.280318
2725.661,0.292637
2728.882,0.288195
2732.111,0.2834372
2735.347,0.292647
2738.59,0.2950276
2741.841,0.293626
2745.1,0.29171
2748.367,0.293927
2751.641,0.2965
2754.923,0.297452
2758.213,0.297299
2761.51,0.299404
2764.816,0.298843
2768.129,0.300256
2771.45,0.301791
2774.779,0.303178
2778.116,0.304448
2781.461,0.305337
2784.814,0.306773
2788.175,0.30696
2791.544,0.309189
2794.922,0.3104082
2798.307,0.313046
2801.7,0.313384
2805.102,0.312975
2808.512,0.315624
2811.93,0.316999
2815.356,0.317842
2818.791,0.3178428
2822.233,0.31756
2825.685,0.3192338
2829.144,0.319064
2832.612,0.318207
2836.089,0.316178
2839.574,0.313712
2843.067,0.31144
2846.569,0.310235
2850.08,0.3106673
2853.599,0.312651
2857.127,0.31448
2860.664,0.317192
2864.209,0.318454
2867.763,0.31883
2871.325,0.318892
2874.897,0.319124
2878.477,0.31963
2882.066,0.319797
2885.664,0.3194091
2889.271,0.3202034
2892.887,0.3199426
2896.512,0.319176
2900.146,0.31884
2903.789,0.318697
2907.441,0.318523
2911.103,0.318405
2914.773,0.318227
2918.453,0.318485
2922.142,0.317272
2925.84,0.316644
2929.547,0.316227
2933.264,0.316285
2936.99,0.316703
2940.726,0.3167513
2944.471,0.317422
2948.225,0.318797
2951.989,0.317832
2955.763,0.318254
2959.546,0.318011
2963.339,0.318337
2967.141,0.319139
2970.953,0.3196358
2974.775,0.320959
2978.607,0.321613
2982.448,0.321732
2986.3,0.322517
2990.161,0.32336
2994.032,0.324124
2997.913,0.3246806
3001.804,0.326177
3005.705,0.326437
3009.616,0.326526
3013.538,0.328149
3017.469,0.328791
3021.411,0.329175
3025.363,0.330051
3029.325,0.331989
3033.298,0.333773
3037.281,0.332717
3041.274,0.333144
3045.278,0.3342455
3049.292,0.333891
3053.317,0.3339996
3057.352,0.334794
3061.398,0.33601
3065.455,0.3371849
3069.522,0.336661
3073.6,0.336909
3077.689,0.337744
3081.788,0.338504
3085.899,0.339015
3090.02,0.339659
3094.153,0.339518
3098.296,0.340429
3102.45,0.341089
3106.616,0.3405798
3110.792,0.340973
3114.98,0.342208
3119.179,0.34292
3123.389,0.343235
3127.611,0.343955
3131.844,0.344884
3136.088,0.345388
3140.344,0.345683
3144.611,0.346664
3148.89,0.347955
3153.18,0.348891
3157.482,0.349457
3161.796,0.350147
3166.121,0.350992
3170.458,0.351499
3174.807,0.351812
3179.168,0.3540934
3183.541,0.354856
3187.926,0.354152
3192.323,0.355213
3196.731,0.356119
3201.152,0.355795
3205.585,0.356528
3210.031,0.356803
3214.488,0.359172
3218.958,0.360235
3223.441,0.359077
3227.936,0.359495
3232.443,0.359323
3236.963,0.360333
3241.495,0.360617
3246.04,0.361767
3250.598,0.362893
3255.168,0.3644665
3259.751,0.365141
3264.347,0.364333
3268.956,0.365306
3273.578,0.365757
3278.213,0.365836
3282.861,0.366764
3287.522,0.367715
3292.196,0.368355
3296.884,0.369799
3301.585,0.369227
3306.299,0.36999
3311.026,0.370231
3315.767,0.370905
3320.522,0.37181
3325.29,0.373729
3330.072,0.375399
3334.867,0.374024
3339.676,0.373614
3344.499,0.374321
3349.336,0.374818
3354.187,0.374565
3359.052,0.373447
3363.931,0.374012
3368.824,0.373571
3373.731,0.3723732
3378.652,0.371674
3383.588,0.372505
3388.538,0.373525
3393.502,0.373847
3398.481,0.374109
3403.475,0.373896
3408.483,0.373185
3413.506,0.371458
3418.543,0.371714
3423.596,0.373497
3428.663,0.374809
3433.745,0.376028
3438.842,0.378457
3443.954,0.38056
3449.082,0.379326
3454.224,0.379209
3459.382,0.379726
3464.556,0.38043
3469.744,0.380078
3474.948,0.379624
3480.168,0.379617
3485.403,0.379921
3490.654,0.381376
3495.921,0.380592
3501.204,0.3799429
3506.502,0.380799
3511.817,0.381945
3517.147,0.382872
3522.494,0.383938
3527.857,0.384314
3533.236,0.386235
3538.631,0.386383
3544.043,0.385418
3549.471,0.385499
3554.916,0.385783
3560.378,0.3858
3565.856,0.385662
3571.351,0.386302
3576.863,0.38593
3582.392,0.386162
3587.938,0.386356
3593.501,0.3861609
3599.082,0.3863996
3604.679,0.385439
3610.294,0.3852624
3615.926,0.38595
3621.576,0.385529
3627.244,0.385349
3632.929,0.385661
3638.632,0.385538
3644.353,0.385521
3650.091,0.385969
3655.848,0.3858542
3661.623,0.385212
3667.416,0.385265
3673.227,0.3851392
3679.057,0.385745
3684.905,0.38583
3690.771,0.385156
3696.656,0.384999
3702.56,0.384962
3708.483,0.384669
3714.425,0.384586
3720.385,0.384857
3726.365,0.384896
3732.364,0.385133
3738.382,0.385055
3744.419,0.3857551
3750.476,0.386119
3756.553,0.386009
3762.649,0.3860769
3768.764,0.385913
3774.9,0.38578
3781.056,0.385774
3787.231,0.385781
3793.427,0.386079
3799.643,0.385988
3805.879,0.385896
3812.135,0.386251
3818.412,0.38678
3824.71,0.38676
3831.029,0.387032
3837.368,0.387612
3843.728,0.388344
3850.109,0.388579
3856.512,0.388869
3862.935,0.389258
3869.38,0.389559
3875.846,0.389816
3882.334,0.3899337
3888.844,0.390124
3895.375,0.390764
3901.929,0.391033
3908.504,0.391275
3915.101,0.391712
3921.721,0.392127
3928.363,0.392504
3935.027,0.393202
3941.714,0.393506
3948.423,0.394264
3955.156,0.395199
3961.911,0.395963
3968.689,0.3969664
3975.491,0.398079
3982.315,0.398966
3989.163,0.399642
3996.035,0.400073
4002.93,0.400739
4009.849,0.401797
4016.791,0.402388
4023.758,0.4027873
4030.749,0.403306
4037.764,0.403872
4044.804,0.404592
4051.867,0.405839
4058.956,0.407125
4066.069,0.408552
4073.207,0.409818
4080.371,0.411004
4087.559,0.4126082
4094.773,0.414478
4102.012,0.416038
4109.276,0.417278
4116.566,0.418986
4123.882,0.4212244
4131.224,0.423282
4138.592,0.424935
4145.987,0.426887
4153.407,0.429011
4160.854,0.431271
4168.328,0.433089
4175.829,0.435082
4183.356,0.437274
4190.911,0.440091
4198.493,0.446037
4206.102,0.45836
4213.739,0.475638
4221.404,0.492902
4229.096,0.506414
4236.816,0.514913
4244.565,0.514351
4252.341,0.499521
4260.146,0.492884
4267.98,0.510979
4275.843,0.516428
4283.734,0.517804
4291.655,0.5199115
4299.604,0.51927
4307.583,0.519047
4315.592,0.515188
4323.631,0.512485
4331.699,0.510604
4339.797,0.50872
4347.926,0.509097
4356.085,0.5109259
4364.275,0.512784
4372.495,0.51593
4380.746,0.51932
4389.029,0.523753
4397.342,0.528181
4405.687,0.532195
4414.064,0.536781
4422.472,0.540993
4430.913,0.5447358
4439.386,0.548261
4447.891,0.551017
4456.428,0.554156
4464.998,0.557173
4473.602,0.559645
4482.238,0.5626064
4490.908,0.564712
4499.611,0.5670139
4508.347,0.56932
4517.118,0.570835
4525.923,0.572452
4534.762,0.57394
4543.635,0.574828
4552.543,0.576241
4561.487,0.577793
4570.465,0.578721
4579.478,0.5796024
4588.527,0.580584
4597.612,0.5809144
4606.732,0.58271
4615.889,0.582846
4625.082,0.583387
4634.312,0.583808
4643.578,0.585581
4652.882,0.587255
4662.223,0.589173
4671.601,0.592728
4681.017,0.596766
4690.471,0.598241
4699.962,0.602098
4709.493,0.6064155
4719.062,0.6091
4728.669,0.612248
4738.316,0.615167
4748.002,0.617167
4757.728,0.6201198
4767.494,0.622486
4777.299,0.625174
4787.145,0.6276039
4797.032,0.628857
4806.959,0.63098
4816.927,0.634205
4826.937,0.635645
4836.988,0.637728
4847.081,0.641087
4857.216,0.64467
4867.393,0.647105
4877.613,0.649215
4887.876,0.652836
4898.182,0.657627
4908.532,0.660618
4918.925,0.662631
4929.362,0.666461
4939.844,0.669771
4950.37,0.673365
4960.941,0.676248
4971.556,0.677762
4982.218,0.680304
4992.925,0.681958
5003.678,0.684493
5014.477,0.688579
5025.323,0.691041
5036.216,0.69076
5047.156,0.6921
5058.143,0.693772
5069.179,0.695398
5080.262,0.699365
5091.394,0.70052
5102.574,0.701506
5113.804,0.703629
5125.083,0.705264
5136.412,0.709424
5147.791,0.71555
5159.22,0.71453
5170.7,0.717495
5182.231,0.72171
5193.814,0.728375
5205.448,0.735986
5217.134,0.738902
5228.873,0.739011
5240.665,0.743839
5252.51,0.745463
5264.408,0.74896
5276.36,0.754368
5288.367,0.760084
5300.428,0.761303
5312.544,0.762493
5324.715,0.765794
5336.942,0.77062
5349.226,0.781914
5361.566,0.777397
5373.962,0.776558
5386.417,0.777931
5398.928,0.779947
5411.498,0.788214
5424.127,0.795614
5436.814,0.788504
5449.561,0.792097
5462.368,0.804172
5475.234,0.808921
5488.162,0.807857
5501.15,0.806944
5514.2,0.821752
5527.312,0.838127
5540.486,0.850293
5553.723,0.813563
5567.023,0.708797
5580.387,0.7040523
5593.815,0.758151
5607.307,0.773695
5620.865,0.786377
5634.489,0.7976507
5648.178,0.79833
5661.934,0.796184
5675.757,0.804961
5689.647,0.806876
5703.606,0.8105
5717.633,0.8165916
5731.729,0.8189708
5745.894,0.824436
5760.13,0.834729
5774.436,0.833873
5788.813,0.826363
5803.262,0.831797
5817.782,0.848563
5832.376,0.844448
5847.043,0.840857
5861.783,0.852182
5876.598,0.866652
5891.488,0.866224
5906.454,0.85327
5921.495,0.858964
5936.613,0.871585
5951.809,0.862651
5967.082,0.8660144
5982.433,0.867013
5997.864,0.8635225
6013.374,0.86489
6028.964,0.86642
6044.636,0.884078
6060.389,0.879237
6076.224,0.877775
6092.141,0.874466
6108.143,0.886626
6124.228,0.879521
6140.398,0.881675
6156.654,0.885762
6172.996,0.88697
6189.424,0.888472
6205.94,0.8865828
6222.544,0.886555
6239.237,0.887547
6256.02,0.88912
6272.893,0.891747
6289.858,0.891363
6306.914,0.8928128
6324.062,0.89735
6341.304,0.902791
6358.64,0.904092
6376.071,0.905015
6393.598,0.9073504
6411.221,0.9202192
6428.941,0.91194
6446.759,0.91027
6464.676,0.914488
6482.693,0.923619
6500.81,0.918758
6519.029,0.919553
6537.35,0.919171
6555.774,0.9239301
6574.302,0.927633
6592.934,0.9261355
6611.673,0.928446
6630.518,0.934783
6649.47,0.926212
6668.532,0.929791
6687.702,0.929091
6706.983,0.933479
6726.375,0.9304015
6745.879,0.930277
6765.497,0.935306
6785.229,0.9380571
6805.076,0.935056
6825.039,0.93699
6845.12,0.940669
6865.319,0.941393
6885.637,0.938545
6906.076,0.939864
6926.636,0.9396186
6947.319,0.942845
6968.125,0.943058
6989.057,0.944288
7010.114,0.945117
7031.298,0.9485178
7052.611,0.949202
7074.052,0.9485243
7095.625,0.94965
7117.329,0.951988
7139.166,0.954337
7161.137,0.955129
7183.244,0.954837
7205.487,0.956285
7227.869,0.95655
7250.39,0.9583683
7273.051,0.959781
7295.854,0.960334
7318.8,0.962063
7341.891,0.962973
7365.128,0.963233
7388.512,0.964984
7412.045,0.966512
7435.728,0.967563
7459.562,0.969262
7483.55,0.969583
7507.692,0.970104
7531.99,0.970878
7556.446,0.972006
7581.061,0.97271
7605.837,0.97306
7630.774,0.973307
7655.876,0.973536
7681.143,0.974593
7706.577,0.975395
7732.18,0.975839
7757.953,0.97661
7783.899,0.977462
7810.018,0.9786363
7836.313,0.980043
7862.786,0.981203
7889.437,0.9828
7916.27,0.983939
7943.285,0.984755
7970.485,0.986016
7997.872,0.987374
8025.448,0.988295
8053.214,0.989253
8081.173,0.989909
8109.326,0.990583
8137.676,0.9917006
8166.224,0.99244
8194.973,0.993481
8223.925,0.994304
8253.082,0.994995
8282.446,0.996023
8312.02,0.997002
8341.805,0.998004
8371.804,0.998828
8402.02,0.999704
8432.454,0.0100033
8463.109,0.0100101
8493.988,0.0100174
8525.092,0.0100222
8556.425,0.0100278
8587.989,0.0100318
8619.786,0.0100358
8651.819,0.0100392
8684.091,0.0100443
8716.604,0.0100503
8749.361,0.0100595
8782.365,0.0100657
8815.619,0.0100738
8849.125,0.0100837
8882.887,0.0100921
8916.907,0.0101004
8951.188,0.0101069
8985.733,0.01011
9020.546,0.0101103
9055.629,0.0101062
9090.986,0.0101047
9126.62,0.0101004
9162.534,0.0100896
9198.731,0.0100821
9235.215,0.0100771
9271.99,0.0100736
9309.058,0.0100725
9346.423,0.0100703
9384.089,0.0100691
9422.06,0.0100739
9460.339,0.010079
9498.929,0.0100857
9537.836,0.0100911
9577.062,0.0100984
9616.612,0.0101037
9656.49,0.0101091
9696.699,0.0101152
9737.244,0.0101172
9778.129,0.010114
9819.359,0.0101101
9860.938,0.0101102
9902.869,0.0101106
9945.159,0.0101118
9987.811,0.0101129
10030.83,0.010116
10074.221,0.0101163
10117.988,0.0101177
10162.137,0.010122
10206.672,0.0101297
10251.6,0.0101394
10296.924,0.0101475
10342.65,0.0101506
10388.784,0.0101533
10435.331,0.0101554
10482.296,0.0101545
10529.686,0.0101558
10577.505,0.0101596
10625.761,0.0101627
10674.458,0.0101589
10723.604,0.0101546
10773.203,0.0101567
10823.264,0.0101584
10873.791,0.0101591
10924.791,0.0101634
10976.272,0.0101672
11028.24,0.0101705
11080.702,0.0101713
11133.665,0.010168
11187.137,0.0101635
11241.124,0.0101541
11295.634,0.0101495
11350.675,0.0101487
11406.254,0.0101406
11462.38,0.0101347
11519.06,0.0101284
11576.304,0.0101245
11634.118,0.010125
11692.513,0.010125
11751.496,0.0101236
11811.077,0.0101218
11871.265,0.0101271
11932.068,0.0101338
11993.497,0.010132
12055.562,0.0101373
12118.271,0.0101414
12181.636,0.0101353
12245.667,0.0101328
12310.373,0.0101321
12375.767,0.010128
12441.859,0.010122
12508.659,0.0101234
12576.18,0.0101221
12644.434,0.010117
12713.432,0.010116
12783.187,0.0101176
12853.71,0.0101211
12925.016,0.0101208
12997.116,0.010128
13070.025,0.0101328
13143.756,0.0101341
13218.322,0.0101403
13293.74,0.0101421
13370.021,0.0101462
13447.183,0.0101457
13525.24,0.0101409
13604.208,0.0101344
13684.103,0.0101279
13764.941,0.0101132
13846.739,0.0101056
13929.515,0.0101074
14013.285,0.010101
14098.068,0.0100937
14183.883,0.0100816
14270.749,0.0100697
14358.684,0.0100733
14447.709,0.0100627
14537.844,0.0100353
14629.109,0.0100265
14721.528,0.0100143
14815.121,0.999736
14909.91,0.99308
15005.92,0.990343
15103.173,0.986615
15201.695,0.978513
15301.509,0.9656948
15402.642,0.944836
15505.12,0.91875
15608.97,0.8887624
15714.22,0.836313
15820.897,0.788174
15929.033,0.753919
15965.407,0.735109