File: csv_library/FTIR_LNR_3_1.csv
Database of Origin,University of Winnipeg Spectrophotometer Facility
Sample Description,Lunar samples/ analogues and glasses - D and P 102F FTIR spectra (from PSF) NASA Apollo lunar samples
Other Information,diffuse gold puck 100 spectra averaged
Date Added,2018-07-23 21:03:11.3153

Data ID,FTIR_LNR_3_1
Sample ID,apollo 15  ID# 15041 71 20
Grain Size,<1mm?
Viewing Geometry,i=30/ e=0
Resolution,3 cm-1
Composition,regolith sample

Wavelength
2.001142,49.9715
2.003474,49.9133
2.005812,49.8551
2.008155,49.797
2.010504,49.7388
2.012858,49.6806
2.015217,49.6224
2.017582,49.5643
2.019952,49.5061
2.022328,49.448
2.024709,49.3898
2.027096,49.3317
2.029488,49.2735
2.031886,49.2154
2.034289,49.1572
2.036698,49.0991
2.039113,49.0409
2.041533,48.9828
2.043959,48.9247
2.046391,48.8665
2.048828,48.8084
2.051271,48.7503
2.05372,48.6921
2.056175,48.634
2.058635,48.5759
2.061101,48.5178
2.063573,48.4596
2.066051,48.4015
2.068534,48.3434
2.071024,48.2853
2.073519,48.2272
2.07602,48.1691
2.078528,48.111
2.081041,48.0529
2.08356,47.9948
2.086085,47.9367
2.088617,47.8786
2.091154,47.8205
2.093697,47.7624
2.096247,47.7043
2.098803,47.6462
2.101364,47.5881
2.103932,47.5301
2.106506,47.472
2.109087,47.4139
2.111673,47.3558
2.114266,47.2977
2.116865,47.2397
2.119471,47.1816
2.122082,47.1235
2.1247,47.0655
2.127325,47.0074
2.129956,46.9493
2.132593,46.8913
2.135237,46.8332
2.137887,46.7752
2.140544,46.7171
2.143207,46.659
2.145876,46.601
2.148553,46.543
2.151235,46.4849
2.153925,46.4269
2.156621,46.3688
2.159324,46.3108
2.162033,46.2528
2.164749,46.1947
2.167472,46.1367
2.170202,46.0787
2.172938,46.0206
2.175682,45.9626
2.178432,45.9046
2.181189,45.8466
2.183952,45.7886
2.186723,45.7305
2.189501,45.6725
2.192285,45.6145
2.195077,45.5565
2.197876,45.4985
2.200682,45.4405
2.203494,45.3825
2.206314,45.3245
2.209141,45.2665
2.211975,45.2085
2.214817,45.1505
2.217665,45.0925
2.220521,45.0345
2.223384,44.9765
2.226254,44.9185
2.229132,44.8605
2.232017,44.8025
2.23491,44.7445
2.237809,44.6866
2.240717,44.6286
2.243631,44.5706
2.246554,44.5126
2.249483,44.4547
2.252421,44.3967
2.255365,44.3387
2.258318,44.2807
2.261278,44.2228
2.264246,44.1648
2.267221,44.1069
2.270204,44.0489
2.273195,43.9909
2.276194,43.933
2.279201,43.875
2.282215,43.8171
2.285237,43.7591
2.288268,43.7012
2.291306,43.6432
2.294352,43.5853
2.297406,43.5274
2.300468,43.4694
2.303539,43.4115
2.306617,43.3535
2.309703,43.2956
2.312798,43.2377
2.315901,43.1797
2.319012,43.1218
2.322131,43.0639
2.325259,43.006
2.328395,42.948
2.33154,42.8901
2.334692,42.8322
2.337854,42.7743
2.341023,42.7164
2.344201,42.6585
2.347388,42.6005
2.350583,42.5426
2.353787,42.4847
2.357,42.4268
2.360221,42.3689
2.363451,42.311
2.36669,42.2531
2.369937,42.1952
2.373194,42.1373
2.376459,42.0794
2.379733,42.0215
2.383016,41.9636
2.386308,41.9057
2.389609,41.8479
2.392919,41.79
2.396238,41.7321
2.399566,41.6742
2.402903,41.6163
2.40625,41.5584
2.409606,41.5006
2.412971,41.4427
2.416345,41.3848
2.419729,41.3269
2.423122,41.2691
2.426524,41.2112
2.429936,41.1533
2.433358,41.0955
2.436789,41.0376
2.440229,40.9798
2.443679,40.9219
2.447139,40.864
2.450609,40.8062
2.454088,40.7483
2.457577,40.6905
2.461076,40.6326
2.464585,40.5748
2.468104,40.5169
2.471632,40.4591
2.475171,40.4012
2.47872,40.3434
2.482278,40.2856
2.485847,40.2277
2.489427,40.1699
2.493016,40.1121
2.496615,40.0542
2.500225,39.9964
2.503845,39.9386
2.507476,39.8807
2.511117,39.8229
2.514769,39.7651
2.518431,39.7073
2.522103,39.6495
2.525787,39.5916
2.52948,39.5338
2.533185,39.476
2.5369,39.4182
2.540627,39.3604
2.544364,39.3026
2.548112,39.2447
2.55187,39.1869
2.55564,39.1291
2.559421,39.0713
2.563213,39.0135
2.567016,38.9557
2.570831,38.8979
2.574656,38.8401
2.578493,38.7823
2.582342,38.7245
2.586201,38.6668
2.590072,38.609
2.593955,38.5512
2.597849,38.4934
2.601755,38.4356
2.605672,38.3778
2.609601,38.32
2.613542,38.2623
2.617495,38.2045
2.621459,38.1467
2.625435,38.0889
2.629424,38.0311
2.633424,37.9734
2.637437,37.9156
2.641461,37.8578
2.645498,37.8001
2.649547,37.7423
2.653609,37.6845
2.657682,37.6268
2.661768,37.569
2.665867,37.5112
2.669978,37.4535
2.674102,37.3957
2.678238,37.338
2.682387,37.2802
2.686549,37.2225
2.690724,37.1647
2.694911,37.107
2.699112,37.0492
2.703325,36.9915
2.707552,36.9337
2.711791,36.876
2.716044,36.8183
2.72031,36.7605
2.724589,36.7028
2.728882,36.645
2.733188,36.5873
2.737508,36.5296
2.741841,36.4718
2.746188,36.4141
2.750549,36.3564
2.754923,36.2987
2.759311,36.2409
2.763713,36.1832
2.768129,36.1255
2.772559,36.0678
2.777003,36.01
2.781461,35.9523
2.785934,35.8946
2.79042,35.8369
2.794922,35.7792
2.799437,35.7215
2.803967,35.6638
2.808512,35.606
2.813071,35.5483
2.817645,35.4906
2.822233,35.4329
2.826837,35.3752
2.831455,35.3175
2.836089,35.2598
2.840737,35.2021
2.845401,35.1444
2.85008,35.0867
2.854774,35.029
2.859484,34.9713
2.864209,34.9137
2.868949,34.856
2.873705,34.7983
2.878477,34.7406
2.883265,34.6829
2.888068,34.6252
2.892887,34.5675
2.897723,34.5099
2.902574,34.4522
2.907441,34.3945
2.912325,34.3368
2.917225,34.2792
2.922142,34.2215
2.927075,34.1638
2.932024,34.1061
2.93699,34.0485
2.941973,33.9908
2.946973,33.9331
2.951989,33.8755
2.957023,33.8178
2.962073,33.7601
2.967141,33.7025
2.972226,33.6448
2.977328,33.5872
2.982448,33.5295
2.987586,33.4718
2.99274,33.4142
2.997913,33.3565
3.003103,33.2989
3.008312,33.2412
3.013538,33.1836
3.018782,33.1259
3.024044,33.0683
3.029325,33.0107
3.034624,32.953
3.039942,32.8954
3.045278,32.8377
3.050632,32.7801
3.056006,32.7224
3.061398,32.6648
3.066809,32.6072
3.072239,32.5496
3.077689,32.4919
3.083157,32.4343
3.088645,32.3767
3.094153,32.319
3.099679,32.2614
3.105226,32.2038
3.110792,32.1462
3.116378,32.0885
3.121985,32.0309
3.127611,31.9733
3.133257,31.9157
3.138924,31.8581
3.144611,31.8004
3.150319,31.7428
3.156047,31.6852
3.161796,31.6276
3.167566,31.57
3.173356,31.5124
3.179168,31.4548
3.185001,31.3972
3.190856,31.3396
3.196731,31.282
3.202629,31.2243
3.208548,31.1667
3.214488,31.1092
3.220451,31.0516
3.226436,30.994
3.232443,30.9364
3.238472,30.8788
3.244523,30.8212
3.250598,30.7636
3.256694,30.706
3.262814,30.6484
3.268956,30.5908
3.275122,30.5332
3.28131,30.4756
3.287522,30.418
3.293757,30.3605
3.300016,30.3029
3.306299,30.2453
3.312605,30.1877
3.318936,30.1301
3.32529,30.0726
3.331669,30.015
3.338072,29.9574
3.344499,29.8998
3.350952,29.8423
3.357429,29.7847
3.363931,29.7271
3.370458,29.6696
3.37701,29.612
3.383588,29.5544
3.390191,29.4969
3.39682,29.4393
3.403475,29.3817
3.410156,29.3242
3.416862,29.2666
3.423596,29.2091
3.430355,29.1515
3.437141,29.0939
3.443954,29.0364
3.450794,28.9788
3.457661,28.9213
3.464556,28.8637
3.471477,28.8062
3.478426,28.7486
3.485403,28.6911
3.492408,28.6335
3.499441,28.576
3.506502,28.5184
3.513592,28.4609
3.52071,28.4034
3.527857,28.3458
3.535032,28.2883
3.542237,28.2307
3.549471,28.1732
3.556735,28.1157
3.564028,28.0581
3.571351,28.0006
3.578704,27.9431
3.586088,27.8855
3.593501,27.828
3.600946,27.7705
3.608421,27.713
3.615926,27.6554
3.623463,27.5979
3.631032,27.5404
3.638632,27.4829
3.646263,27.4253
3.653927,27.3678
3.661623,27.3103
3.669351,27.2528
3.677111,27.1953
3.684905,27.1377
3.692731,27.0802
3.70059,27.0227
3.708483,26.9652
3.716409,26.9077
3.72437,26.8502
3.732364,26.7927
3.740392,26.7352
3.748455,26.6777
3.756553,26.6201
3.764685,26.5626
3.772853,26.5051
3.781056,26.4476
3.789294,26.3901
3.797568,26.3326
3.805879,26.2751
3.814225,26.2176
3.822609,26.1601
3.831029,26.1026
3.839486,26.0452
3.84798,25.9877
3.856512,25.9302
3.865081,25.8727
3.873689,25.8152
3.882334,25.7577
3.891019,25.7002
3.899742,25.6427
3.908504,25.5852
3.917305,25.5278
3.926146,25.4703
3.935027,25.4128
3.943948,25.3553
3.952909,25.2978
3.961911,25.2403
3.970954,25.1829
3.980038,25.1254
3.989163,25.0679
3.99833,25.0104
4.00754,24.953
4.016791,24.8955
4.026086,24.838
4.035423,24.7805
4.044804,24.7231
4.054228,24.6656
4.063695,24.6081
4.073207,24.5507
4.082764,24.4932
4.092365,24.4357
4.102012,24.3783
4.111703,24.3208
4.121441,24.2634
4.131224,24.2059
4.141054,24.1484
4.150931,24.091
4.160854,24.0335
4.170826,23.9761
4.180844,23.9186
4.190911,23.8612
4.201026,23.8037
4.21119,23.7463
4.221404,23.6888
4.231666,23.6314
4.241979,23.5739
4.252341,23.5165
4.262754,23.459
4.273219,23.4016
4.283734,23.3441
4.294301,23.2867
4.30492,23.2292
4.315592,23.1718
4.326317,23.1143
4.337095,23.0569
4.347926,22.9995
4.358811,22.942
4.369751,22.8846
4.380746,22.8272
4.391796,22.7697
4.402902,22.7123
4.414064,22.6549
4.425282,22.5974
4.436558,22.54
4.447891,22.4826
4.459281,22.4251
4.47073,22.3677
4.482238,22.3103
4.493805,22.2529
4.505431,22.1954
4.517118,22.138
4.528865,22.0806
4.540674,22.0232
4.552543,21.9657
4.564475,21.9083
4.57647,21.8509
4.588527,21.7935
4.600648,21.7361
4.612833,21.6787
4.625082,21.6212
4.637397,21.5638
4.649777,21.5064
4.662223,21.449
4.674735,21.3916
4.687315,21.3342
4.699962,21.2768
4.712678,21.2194
4.725463,21.1619
4.738316,21.1045
4.75124,21.0471
4.764234,20.9897
4.777299,20.9323
4.790436,20.8749
4.803645,20.8175
4.816927,20.7601
4.830283,20.7027
4.843712,20.6453
4.857216,20.5879
4.870795,20.5305
4.884451,20.4731
4.898182,20.4157
4.911991,20.3583
4.925878,20.3009
4.939844,20.2436
4.953888,20.1862
4.968013,20.1288
4.982218,20.0714
4.996504,20.014
5.010872,19.9566
5.025323,19.8992
5.039857,19.8418
5.054475,19.7844
5.069179,19.7271
5.083967,19.6697
5.098842,19.6123
5.113804,19.5549
5.128854,19.4975
5.143992,19.4402
5.15922,19.3828
5.174538,19.3254
5.189947,19.268
5.205448,19.2106
5.221041,19.1533
5.236728,19.0959
5.25251,19.0385
5.268386,18.9811
5.284358,18.9238
5.300428,18.8664
5.316595,18.809
5.33286,18.7517
5.349226,18.6943
5.365692,18.6369
5.382259,18.5796
5.398928,18.5222
5.415701,18.4648
5.432579,18.4075
5.449561,18.3501
5.46665,18.2927
5.483846,18.2354
5.50115,18.178
5.518564,18.1207
5.536087,18.0633
5.553723,18.0059
5.57147,17.9486
5.589332,17.8912
5.607307,17.8339
5.625399,17.7765
5.643607,17.7192
5.661934,17.6618
5.680379,17.6045
5.698945,17.5471
5.717633,17.4898
5.736443,17.4324
5.755377,17.3751
5.774436,17.3177
5.793621,17.2604
5.812934,17.203
5.832376,17.1457
5.851948,17.0883
5.871652,17.031
5.891488,16.9736
5.911459,16.9163
5.931565,16.859
5.951809,16.8016
5.97219,16.7443
5.992711,16.6869
6.013374,16.6296
6.034179,16.5723
6.055129,16.5149
6.076224,16.4576
6.097466,16.4003
6.118857,16.3429
6.140398,16.2856
6.162091,16.2283
6.183938,16.1709
6.20594,16.1136
6.228099,16.0563
6.250416,15.9989
6.272893,15.9416
6.295533,15.8843
6.318336,15.827
6.341304,15.7696
6.36444,15.7123
6.387745,15.655
6.411221,15.5977
6.434869,15.5403
6.458693,15.483
6.482693,15.4257
6.506872,15.3684
6.531231,15.311
6.555774,15.2537
6.580501,15.1964
6.605415,15.1391
6.630518,15.0818
6.655812,15.0245
6.6813,14.9671
6.706983,14.9098
6.732864,14.8525
6.758945,14.7952
6.785229,14.7379
6.811718,14.6806
6.838413,14.6233
6.865319,14.566
6.892437,14.5087
6.919769,14.4513
6.947319,14.394
6.975089,14.3367
7.003081,14.2794
7.031298,14.2221
7.059743,14.1648
7.088419,14.1075
7.117329,14.0502
7.146475,13.9929
7.17586,13.9356
7.205487,13.8783
7.23536,13.821
7.265481,13.7637
7.295854,13.7064
7.326481,13.6491
7.357366,13.5918
7.388512,13.5345
7.419922,13.4772
7.451601,13.4199
7.48355,13.3626
7.515774,13.3053
7.548277,13.2481
7.581061,13.1908
7.614131,13.1335
7.647491,13.0762
7.681143,13.0189
7.715093,12.9616
7.749343,12.9043
7.783899,12.847
7.818764,12.7897
7.853942,12.7325
7.889437,12.6752
7.925254,12.6179
7.961398,12.5606
7.997872,12.5033
8.034682,12.446
8.071832,12.3888
8.109326,12.3315
8.147169,12.2742
8.185368,12.2169
8.223925,12.1596
8.262847,12.1024
8.302139,12.0451
8.341805,11.9878
8.381852,11.9305
8.422285,11.8733
8.463109,11.816
8.504331,11.7587
8.545955,11.7014
8.587989,11.6442
8.630437,11.5869
8.673307,11.5296
8.716604,11.4724
8.760335,11.4151
8.804507,11.3578
8.849125,11.3006
8.894198,11.2433
8.939732,11.186
8.985733,11.1288
9.03221,11.0715
9.07917,11.0142
9.12662,10.957
9.174568,10.8997
9.223022,10.8424
9.27199,10.7852
9.32148,10.7279
9.3715,10.6707
9.42206,10.6134
9.473167,10.5561
9.524832,10.4989
9.577062,10.4416
9.629868,10.3844
9.683259,10.3271
9.737244,10.2698
9.791834,10.2126
9.847039,10.1553
9.902869,10.0981
9.959336,10.0408
10.0164,9.98358
10.0742,9.92633
10.1327,9.86907
10.1918,9.81182
10.2516,9.75457
10.3121,9.69733
10.37336,9.64008
10.4353,9.58283
10.498,9.52558
10.5615,9.46834
10.6258,9.41109
10.69079,9.35385
10.7566,9.2966
10.8233,9.239357
10.8907,9.18211
10.9591,9.12487
11.02824,9.06763
11.0983,9.01039
11.1693,8.95315
11.2411,8.89591
11.3139,8.83867
11.3877,8.78143
11.46238,8.72419
11.5381,8.66695
11.6148,8.60972
11.6925,8.55248
11.77129,8.49525
11.8511,8.43801
11.9321,8.38078
12.0141,8.32354
12.0973,8.26631
12.1816,8.20908
12.26716,8.15185
12.3539,8.09462
12.4419,8.03738
12.5311,7.98015
12.6216,7.92293
12.7134,7.8657
12.8066,7.80847
12.9012,7.75124
12.9971,7.69401
13.09451,7.63679
13.1934,7.57956
13.29374,7.52234
13.3956,7.46511
13.4991,7.40789
13.6042,7.35067
13.7109,7.29344
13.8194,7.23622
13.9295,7.179
14.0414,7.12178
14.1552,7.06456
14.2707,7.00734
14.3882,6.95012
14.5077,6.8929
14.6291,6.83569
14.7526,6.77847
14.8782,6.72125
15.00592,6.66404
15.1359,6.60682
15.2681,6.54961
15.4026,6.49239
15.5396,6.43518
15.679,6.37797
15.8209,6.32075
15.9654,6.26354