File: csv_library/FTIR_CLAY_12.csv
Database of Origin,University of Winnipeg Spectrophotometer Facility
Sample Description,See Master Clays in HOSERLab database
Date Added,2016-12-11 20:56:55.3215

Data ID,FTIR_CLAY_12
Sample ID,NON101
Mineral Name,Nontronite
Grain Size,<45 m
Viewing Geometry,35/0
Resolution,11-72 nm
Material Class,Phyllosilicate

Wavelength
2001.142,0.393286
2003.474,0.393935
2005.812,0.395443
2008.155,0.39728
2010.504,0.39837
2012.858,0.400518
2015.217,0.401621
2017.582,0.402065
2019.952,0.403646
2022.328,0.404276
2024.709,0.4047678
2027.096,0.406343
2029.488,0.407531
2031.886,0.40836
2034.289,0.408921
2036.698,0.410235
2039.113,0.411459
2041.533,0.413039
2043.959,0.413971
2046.391,0.4149329
2048.828,0.416355
2051.271,0.416557
2053.72,0.417263
2056.175,0.417607
2058.635,0.418953
2061.101,0.419004
2063.573,0.419285
2066.051,0.420793
2068.534,0.421182
2071.024,0.421437
2073.519,0.421749
2076.02,0.422242
2078.528,0.4229373
2081.041,0.423549
2083.56,0.424048
2086.085,0.425086
2088.617,0.425688
2091.154,0.4264723
2093.697,0.426759
2096.247,0.4273999
2098.803,0.427933
2101.364,0.428902
2103.932,0.4289508
2106.506,0.430533
2109.087,0.432028
2111.673,0.4322655
2114.266,0.432344
2116.865,0.433356
2119.471,0.433864
2122.082,0.433859
2124.7,0.433599
2127.325,0.432983
2129.956,0.432485
2132.593,0.434012
2135.237,0.4342146
2137.887,0.434594
2140.544,0.43467
2143.207,0.434535
2145.876,0.434065
2148.553,0.433971
2151.235,0.433865
2153.925,0.433096
2156.621,0.432895
2159.324,0.432467
2162.033,0.431601
2164.749,0.430771
2167.472,0.430827
2170.202,0.4314772
2172.938,0.4311099
2175.682,0.430188
2178.432,0.430056
2181.189,0.429321
2183.952,0.4285352
2186.723,0.427606
2189.501,0.4264529
2192.285,0.425117
2195.077,0.422827
2197.876,0.421285
2200.682,0.4181511
2203.494,0.415066
2206.314,0.413884
2209.141,0.413858
2211.975,0.414533
2214.817,0.4141803
2217.665,0.413614
2220.521,0.412742
2223.384,0.412654
2226.254,0.413956
2229.132,0.414834
2232.017,0.416681
2234.91,0.417471
2237.809,0.418067
2240.717,0.41905
2243.631,0.419697
2246.554,0.419885
2249.483,0.4202901
2252.421,0.419911
2255.365,0.418462
2258.318,0.416868
2261.278,0.413683
2264.246,0.4100211
2267.221,0.403564
2270.204,0.397064
2273.195,0.389741
2276.194,0.382302
2279.201,0.3752236
2282.215,0.369773
2285.237,0.367021
2288.268,0.36743
2291.306,0.370832
2294.352,0.375681
2297.406,0.380798
2300.468,0.386383
2303.539,0.391733
2306.617,0.395831
2309.703,0.398706
2312.798,0.400004
2315.901,0.401111
2319.012,0.400555
2322.131,0.400029
2325.259,0.400125
2328.395,0.399224
2331.54,0.398879
2334.692,0.397632
2337.854,0.396594
2341.023,0.394598
2344.201,0.393409
2347.388,0.3920119
2350.583,0.390118
2353.787,0.38911
2357.0,0.388543
2360.221,0.387071
2363.451,0.386001
2366.69,0.385193
2369.937,0.383475
2373.194,0.381089
2376.459,0.379078
2379.733,0.37638
2383.016,0.37322
2386.308,0.370707
2389.609,0.368444
2392.919,0.366586
2396.238,0.364714
2399.566,0.363354
2402.903,0.362732
2406.25,0.3632059
2409.606,0.364043
2412.971,0.363868
2416.345,0.364085
2419.729,0.363806
2423.122,0.363312
2426.524,0.362786
2429.936,0.362121
2433.358,0.360688
2436.789,0.359734
2440.229,0.359259
2443.679,0.3581421
2447.139,0.357236
2450.609,0.3560136
2454.088,0.3549764
2457.577,0.353663
2461.076,0.351919
2464.585,0.350612
2468.104,0.349115
2471.632,0.347791
2475.171,0.346708
2478.72,0.344897
2482.278,0.343012
2485.847,0.340604
2489.427,0.339247
2493.016,0.3373216
2496.615,0.33625
2500.225,0.335198
2503.845,0.334181
2507.476,0.3337027
2511.117,0.333737
2514.769,0.333935
2518.431,0.334169
2522.103,0.334599
2525.787,0.334684
2529.48,0.334741
2533.185,0.335928
2536.9,0.335363
2540.627,0.334637
2544.364,0.336002
2548.112,0.335603
2551.87,0.336626
2555.64,0.334411
2559.421,0.337106
2563.213,0.341098
2567.016,0.3363403
2570.831,0.337136
2574.656,0.338184
2578.493,0.335476
2582.342,0.336832
2586.201,0.336806
2590.072,0.333513
2593.955,0.341262
2597.849,0.33252
2601.755,0.330838
2605.672,0.334972
2609.601,0.328958
2613.542,0.326045
2617.495,0.3299555
2621.459,0.323995
2625.435,0.320553
2629.424,0.322697
2633.424,0.317839
2637.437,0.310823
2641.461,0.308785
2645.498,0.306641
2649.547,0.30107
2653.609,0.299529
2657.682,0.293796
2661.768,0.290039
2665.867,0.293361
2669.978,0.287176
2674.102,0.271372
2678.238,0.26574
2682.387,0.241543
2686.549,0.220125
2690.724,0.186196
2694.911,0.161326
2699.112,0.135218
2703.325,0.136004
2707.552,0.142194
2711.791,0.146215
2716.044,0.129759
2720.31,0.131868
2724.589,0.117856
2728.882,0.09655596
2733.188,0.08455514
2737.508,0.07423531
2741.841,0.06784415
2746.188,0.05554034
2750.549,0.05070773
2754.923,0.04888104
2759.311,0.04416146
2763.713,0.04450245
2768.129,0.04313385
2772.559,0.04214293
2777.003,0.04073471
2781.461,0.03926449
2785.934,0.03714275
2790.42,0.03486299
2794.922,0.03295253
2799.437,0.03164867
2803.967,0.03247068
2808.512,0.03185392
2813.071,0.03341102
2817.645,0.03687764
2822.233,0.03975146
2826.837,0.04169503
2831.455,0.04183937
2836.089,0.04172523
2840.737,0.04083042
2845.401,0.04051434
2850.08,0.03912242
2854.774,0.03850069
2859.484,0.03782591
2864.209,0.03720302
2868.949,0.03609109
2873.705,0.03545445
2878.477,0.03492341
2883.265,0.03420523
2888.068,0.03400509
2892.887,0.03421119
2897.723,0.03265588
2902.574,0.03195482
2907.441,0.03126667
2912.325,0.03106132
2917.225,0.03216511
2922.142,0.03146381
2927.075,0.02994041
2932.024,0.02959666
2936.99,0.03020981
2941.973,0.02972585
2946.973,0.03154486
2951.989,0.03073109
2957.023,0.03121924
2962.073,0.02873932
2967.141,0.02897756
2972.226,0.02961803
2977.328,0.0314837
2982.448,0.02902396
2987.586,0.02881382
2992.74,0.03052366
2997.913,0.02972372
3003.103,0.0307551
3008.312,0.02973363
3013.538,0.03057934
3018.782,0.03032188
3024.044,0.03022101
3029.325,0.03199705
3034.624,0.03413822
3039.942,0.03186571
3045.278,0.03343294
3050.632,0.0320784
3056.006,0.0318973
3061.398,0.03292832
3066.809,0.0342791
3072.239,0.03253395
3077.689,0.03291339
3083.157,0.03286734
3088.645,0.03375179
3094.153,0.03266425
3099.679,0.03410241
3105.226,0.03338922
3110.792,0.03294327
3116.378,0.03316808
3121.985,0.03320733
3127.611,0.03324682
3133.257,0.03369169
3138.924,0.03383756
3144.611,0.03442467
3150.319,0.03485197
3156.047,0.03545311
3161.796,0.03586681
3167.566,0.03617499
3173.356,0.03681327
3179.168,0.03941205
3185.001,0.03952744
3190.856,0.03956593
3196.731,0.04162
3202.629,0.04115193
3208.548,0.04220439
3214.488,0.04704386
3220.451,0.0477491
3226.436,0.04690489
3232.443,0.04689015
3238.472,0.0479692
3244.523,0.0499619
3250.598,0.05258847
3256.694,0.05589294
3262.814,0.05374276
3268.956,0.05544476
3275.122,0.05580444
3281.31,0.05733066
3287.522,0.05966309
3293.757,0.06160698
3300.016,0.06324352
3306.299,0.06409587
3312.605,0.06441928
3318.936,0.06614607
3325.29,0.06983928
3331.669,0.0720444
3338.072,0.06954187
3344.499,0.07159779
3350.952,0.07440207
3357.429,0.07377663
3363.931,0.07651834
3370.458,0.07768051
3377.01,0.07769563
3383.588,0.07907457
3390.191,0.08068924
3396.82,0.08315465
3403.475,0.08619006
3410.156,0.08702465
3416.862,0.08663057
3423.596,0.08990176
3430.355,0.09085203
3437.141,0.0940149
3443.954,0.0986533
3450.794,0.09650091
3457.661,0.09777382
3464.556,0.100313
3471.477,0.100936
3478.426,0.102278
3485.403,0.104212
3492.408,0.108052
3499.441,0.107142
3506.502,0.109327
3513.592,0.110831
3520.71,0.113333
3527.857,0.115038
3535.032,0.119351
3542.237,0.119065
3549.471,0.120165
3556.735,0.121931
3564.028,0.123975
3571.351,0.126549
3578.704,0.12794
3586.088,0.131193
3593.501,0.132699
3600.946,0.134591
3608.421,0.135126
3615.926,0.138313
3623.463,0.139294
3631.032,0.140993
3638.632,0.142754
3646.263,0.145298
3653.927,0.147836
3661.623,0.149063
3669.351,0.1513008
3677.111,0.154058
3684.905,0.156866
3692.731,0.158032
3700.59,0.16016
3708.483,0.162258
3716.409,0.164489
3724.37,0.16658
3732.364,0.168524
3740.392,0.170972
3748.455,0.173433
3756.553,0.17467
3764.685,0.176191
3772.853,0.178186
3781.056,0.179835
3789.294,0.181601
3797.568,0.18354
3805.879,0.185473
3814.225,0.1869212
3822.609,0.188559
3831.029,0.190301
3839.486,0.191995
3847.98,0.193543
3856.512,0.194891
3865.081,0.196491
3873.689,0.197884
3882.334,0.199573
3891.019,0.20111
3899.742,0.2024076
3908.504,0.203948
3917.305,0.205505
3926.146,0.207181
3935.027,0.208686
3943.948,0.210249
3952.909,0.211975
3961.911,0.214035
3970.954,0.215897
3980.038,0.217971
3989.163,0.219916
3998.33,0.221483
4007.54,0.223114
4016.791,0.224857
4026.086,0.226404
4035.423,0.228399
4044.804,0.230508
4054.228,0.232703
4063.695,0.2349987
4073.207,0.237337
4082.764,0.240121
4092.365,0.242658
4102.012,0.245038
4111.703,0.2477652
4121.441,0.250548
4131.224,0.253457
4141.054,0.256577
4150.931,0.259508
4160.854,0.262484
4170.826,0.265732
4180.844,0.269083
4190.911,0.273427
4201.026,0.283739
4211.19,0.304758
4221.404,0.330208
4231.666,0.351932
4241.979,0.358691
4252.341,0.3395566
4262.754,0.334383
4273.219,0.35347
4283.734,0.353853
4294.301,0.354924
4304.92,0.352029
4315.592,0.345477
4326.317,0.339713
4337.095,0.3351493
4347.926,0.332844
4358.811,0.333117
4369.751,0.33384
4380.746,0.335337
4391.796,0.338867
4402.902,0.342346
4414.064,0.345958
4425.282,0.349125
4436.558,0.352402
4447.891,0.3556038
4459.281,0.358787
4470.73,0.362504
4482.238,0.366132
4493.805,0.369787
4505.431,0.373466
4517.118,0.377277
4528.865,0.380902
4540.674,0.384282
4552.543,0.388138
4564.475,0.3917103
4576.47,0.3949862
4588.527,0.39833
4600.648,0.401892
4612.833,0.405335
4625.082,0.408789
4637.397,0.412134
4649.777,0.415686
4662.223,0.419412
4674.735,0.423013
4687.315,0.4268076
4699.962,0.430601
4712.678,0.434787
4725.463,0.439045
4738.316,0.442716
4751.24,0.446469
4764.234,0.450611
4777.299,0.454338
4790.436,0.458829
4803.645,0.461778
4816.927,0.465668
4830.283,0.468981
4843.712,0.473689
4857.216,0.4754
4870.795,0.4783289
4884.451,0.480874
4898.182,0.484224
4911.991,0.485085
4925.878,0.487474
4939.844,0.490935
4953.888,0.496392
4968.013,0.496839
4982.218,0.498664
4996.504,0.501424
5010.872,0.506514
5025.323,0.513823
5039.857,0.512397
5054.475,0.51586
5069.179,0.5197082
5083.967,0.528388
5098.842,0.5285119
5113.804,0.532687
5128.854,0.535654
5143.992,0.547694
5159.22,0.544208
5174.538,0.546846
5189.947,0.55191
5205.448,0.564183
5221.041,0.561626
5236.728,0.564013
5252.51,0.561789
5268.386,0.565517
5284.358,0.5730994
5300.428,0.574012
5316.595,0.573097
5332.86,0.576327
5349.226,0.603229
5365.692,0.588718
5382.259,0.591317
5398.928,0.596379
5415.701,0.622707
5432.579,0.616331
5449.561,0.616236
5466.65,0.640147
5483.846,0.6313901
5501.15,0.624943
5518.564,0.638892
5536.087,0.643645
5553.723,0.692667
5571.47,0.645293
5589.332,0.61585
5607.307,0.617635
5625.399,0.621761
5643.607,0.645298
5661.934,0.634047
5680.379,0.644409
5698.945,0.648855
5717.633,0.670152
5736.443,0.665008
5755.377,0.675301
5774.436,0.680356
5793.621,0.662234
5812.934,0.692325
5832.376,0.6946549
5851.948,0.688109
5871.652,0.7175066
5891.488,0.724917
5911.459,0.695231
5931.565,0.734123
5951.809,0.710058
5972.19,0.721975
5992.711,0.720565
6013.374,0.713698
6034.179,0.728891
6055.129,0.7532162
6076.224,0.738497
6097.466,0.733688
6118.857,0.741609
6140.398,0.736242
6162.091,0.743285
6183.938,0.751018
6205.94,0.738026
6228.099,0.741127
6250.416,0.742364
6272.893,0.7477607
6295.533,0.749536
6318.336,0.755155
6341.304,0.779122
6364.44,0.780464
6387.745,0.779415
6411.221,0.827785
6434.869,0.794122
6458.693,0.795632
6482.693,0.837408
6506.872,0.81114
6531.231,0.807257
6555.774,0.82808
6580.501,0.833769
6605.415,0.8225753
6630.518,0.853668
6655.812,0.8178987
6681.3,0.824416
6706.983,0.835709
6732.864,0.818085
6758.945,0.825798
6785.229,0.845401
6811.718,0.8295551
6838.413,0.839093
6865.319,0.8517996
6892.437,0.834947
6919.769,0.830692
6947.319,0.845687
6975.089,0.843534
7003.081,0.843797
7031.298,0.857922
7059.743,0.8503357
7088.419,0.848113
7117.329,0.8540128
7146.475,0.865793
7175.86,0.860565
7205.487,0.863905
7235.36,0.860838
7265.481,0.87056
7295.854,0.867527
7326.481,0.876396
7357.366,0.872021
7388.512,0.8727021
7419.922,0.8744721
7451.601,0.884953
7483.55,0.881196
7515.774,0.881583
7548.277,0.884654
7581.061,0.889275
7614.131,0.889571
7647.491,0.890075
7681.143,0.891992
7715.093,0.894279
7749.343,0.896948
7783.899,0.89812
7818.764,0.900138
7853.942,0.903524
7889.437,0.905488
7925.254,0.908341
7961.398,0.910067
7997.872,0.912211
8034.682,0.914847
8071.832,0.9166132
8109.326,0.919079
8147.169,0.921291
8185.368,0.923068
8223.925,0.924624
8262.847,0.925916
8302.139,0.927521
8341.805,0.929036
8381.852,0.930552
8422.285,0.932118
8463.109,0.933418
8504.331,0.934819
8545.955,0.936218
8587.989,0.937613
8630.437,0.938866
8673.307,0.94037
8716.604,0.941845
8760.335,0.943258
8804.507,0.944935
8849.125,0.946147
8894.198,0.947617
8939.732,0.94886
8985.733,0.950076
9032.21,0.9508081
9079.17,0.951147
9126.62,0.951546
9174.568,0.95177
9223.022,0.95172
9271.99,0.951945
9321.48,0.952189
9371.5,0.952741
9422.06,0.952942
9473.167,0.95362
9524.832,0.9545723
9577.062,0.955241
9629.868,0.956207
9683.259,0.9568956
9737.244,0.957321
9791.834,0.95818
9847.039,0.959336
9902.869,0.9601863
9959.336,0.96076
10016.449,0.961663
10074.221,0.962643
10132.662,0.963577
10191.784,0.964361
10251.6,0.965149
10312.121,0.965942
10373.36,0.966787
10435.331,0.967422
10498.045,0.967857
10561.517,0.968256
10625.761,0.968583
10690.79,0.968945
10756.619,0.969466
10823.264,0.969905
10890.738,0.9699889
10959.058,0.970186
11028.24,0.970522
11098.301,0.970308
11169.256,0.97043
11241.124,0.97099
11313.921,0.971217
11387.667,0.971187
11462.38,0.971591
11538.079,0.971896
11614.783,0.972271
11692.513,0.972487
11771.29,0.972965
11851.134,0.973295
11932.068,0.973697
12014.114,0.973661
12097.296,0.973853
12181.636,0.973677
12267.16,0.973887
12353.892,0.974116
12441.859,0.974611
12531.086,0.974851
12621.601,0.974928
12713.432,0.97514
12806.608,0.9755668
12901.159,0.976121
12997.116,0.976478
13094.51,0.9765523
13193.373,0.976575
13293.74,0.976543
13395.644,0.976501
13499.121,0.976465
13604.208,0.976033
13710.943,0.976573
13819.365,0.976542
13929.515,0.975663
14041.433,0.9751834
14155.163,0.974092
14270.749,0.972775
14388.237,0.971858
14507.674,0.969333
14629.109,0.965421
14752.594,0.959912
14878.179,0.954365
15005.92,0.9423877
15135.871,0.922647
15268.092,0.8934972
15402.642,0.853251
15539.583,0.797082
15678.979,0.722277
15820.897,0.6483464
15965.407,0.572102