File: csv_library/FTIR_PLG_03.csv
Database of Origin,University of Winnipeg Spectrophotometer Facility
Sample Description,IR Reflectance spectra of plagioclase with a Bruker Vertex 70 FTIR. See Master Plagioclase in PSF database for additional info.
Date Added,2016-11-22 04:00:06.290404

Data ID,FTIR_PLG_03
Sample ID,PLG108
Mineral Name,Plagioclase
Grain Size,<45 um
Viewing Geometry,"i30, e0"
Resolution,7.71cm-1
Material Class,Tectosilicate

Wavelength
1670.16,0.55572
1672.32,0.55551
1674.48,0.5551
1676.64,0.55495
1678.81,0.55551
1680.99,0.55635
1683.18,0.55645
1685.36,0.55582
1687.56,0.55497
1689.76,0.5547
1691.96,0.55498
1694.18,0.55485
1696.39,0.5544
1698.62,0.55453
1700.85,0.55509
1703.08,0.55532
1705.32,0.55507
1707.57,0.55481
1709.82,0.55482
1712.08,0.55491
1714.35,0.55511
1716.62,0.55516
1718.89,0.55489
1721.18,0.55465
1723.46,0.55465
1725.76,0.55489
1728.06,0.55502
1730.37,0.55491
1732.68,0.55476
1735,0.55468
1737.33,0.55463
1739.66,0.55466
1742,0.55482
1744.34,0.5547
1746.69,0.55425
1749.05,0.55408
1751.41,0.55438
1753.78,0.55492
1756.16,0.55513
1758.54,0.5547
1760.93,0.55425
1763.33,0.55417
1765.73,0.554
1768.14,0.55352
1770.55,0.55341
1772.98,0.55387
1775.4,0.55412
1777.84,0.55394
1780.28,0.55372
1782.73,0.55363
1785.19,0.55369
1787.65,0.55391
1790.12,0.55385
1792.59,0.55346
1795.08,0.55321
1797.57,0.55322
1800.06,0.55354
1802.57,0.5539
1805.08,0.55397
1807.59,0.55407
1810.12,0.55445
1812.65,0.55483
1815.19,0.55484
1817.73,0.55487
1820.29,0.55523
1822.85,0.55535
1825.42,0.55561
1827.99,0.55621
1830.57,0.5565
1833.16,0.55668
1835.76,0.55763
1838.36,0.55869
1840.97,0.55826
1843.59,0.55726
1846.22,0.55751
1848.85,0.55722
1851.49,0.55645
1854.14,0.55691
1856.8,0.55732
1859.46,0.55664
1862.13,0.5554
1864.81,0.55551
1867.5,0.55733
1870.19,0.55904
1872.9,0.55896
1875.61,0.55698
1878.33,0.55438
1881.05,0.55301
1883.79,0.55306
1886.53,0.55324
1889.28,0.55349
1892.04,0.55368
1894.8,0.55376
1897.58,0.55452
1900.36,0.55483
1903.15,0.55397
1905.95,0.55264
1908.76,0.55137
1911.57,0.55112
1914.39,0.5512
1917.23,0.5512
1920.07,0.55125
1922.92,0.55085
1925.77,0.55061
1928.64,0.55049
1931.51,0.54993
1934.4,0.54963
1937.29,0.54978
1940.19,0.54979
1943.1,0.54968
1946.01,0.54942
1948.94,0.54912
1951.88,0.54915
1954.82,0.54921
1957.77,0.54922
1960.73,0.54931
1963.7,0.54937
1966.68,0.54947
1969.67,0.54955
1972.67,0.54964
1975.68,0.54968
1978.69,0.54963
1981.72,0.54977
1984.76,0.54997
1987.8,0.55001
1990.85,0.54993
1993.92,0.54987
1996.99,0.55
2000.07,0.55028
2003.16,0.55051
2006.26,0.55056
2009.37,0.55063
2012.49,0.55068
2015.62,0.55044
2018.76,0.55018
2021.91,0.55026
2025.07,0.55058
2028.24,0.55082
2031.42,0.55088
2034.61,0.55096
2037.81,0.551
2041.02,0.55098
2044.24,0.55099
2047.46,0.55096
2050.7,0.5509
2053.95,0.55084
2057.21,0.55079
2060.48,0.55093
2063.77,0.55107
2067.06,0.55103
2070.36,0.551
2073.67,0.55092
2077,0.55099
2080.33,0.55122
2083.67,0.5512
2087.03,0.55098
2090.4,0.55086
2093.77,0.5509
2097.16,0.55109
2100.56,0.5513
2103.97,0.55117
2107.39,0.55108
2110.82,0.55136
2114.27,0.5515
2117.72,0.55129
2121.19,0.55091
2124.66,0.55075
2128.15,0.55086
2131.65,0.55075
2135.16,0.55071
2138.69,0.55111
2142.22,0.55117
2145.77,0.55071
2149.33,0.55042
2152.9,0.5504
2156.48,0.55043
2160.08,0.55038
2163.68,0.55023
2167.3,0.55013
2170.93,0.55012
2174.57,0.55001
2178.23,0.54982
2181.89,0.5497
2185.57,0.54973
2189.27,0.54971
2192.97,0.54947
2196.69,0.54927
2200.42,0.54917
2204.16,0.54902
2207.91,0.54882
2211.68,0.54876
2215.46,0.54895
2219.26,0.54903
2223.06,0.54884
2226.88,0.54841
2230.71,0.54818
2234.56,0.54828
2238.42,0.54832
2242.29,0.54828
2246.18,0.54812
2250.08,0.54777
2253.99,0.54743
2257.92,0.54728
2261.86,0.54722
2265.813,0.54716
2269.78,0.54729
2273.76,0.54742
2277.76,0.54728
2281.77,0.54703
2285.79,0.54671
2289.83,0.54655
2293.89,0.54656
2297.95,0.54632
2302.03,0.54588
2306.13,0.54545
2310.24,0.54498
2314.37,0.54461
2318.51,0.54457
2322.66,0.54469
2326.83,0.54466
2331.02,0.54455
2335.22,0.54459
2339.43,0.54464
2343.66,0.54459
2347.91,0.54453
2352.17,0.54455
2356.45,0.54481
2360.74,0.54521
2365.05,0.54541
2369.37,0.54539
2373.71,0.54522
2378.06,0.54505
2382.44,0.54504
2386.82,0.54502
2391.23,0.54481
2395.65,0.54455
2400.08,0.54443
2404.54,0.54435
2409.01,0.54427
2413.49,0.54416
2417.99,0.54386
2422.51,0.54352
2427.05,0.5434
2431.6,0.54337
2436.17,0.54316
2440.76,0.54282
2445.37,0.54251
2449.99,0.54232
2454.63,0.54227
2459.29,0.54219
2463.96,0.54191
2468.66,0.54151
2473.37,0.5412
2478.1,0.54109
2482.84,0.5411
2487.61,0.54105
2492.39,0.54073
2497.2,0.54029
2502.02,0.54018
2506.86,0.54027
2511.72,0.54027
2516.59,0.54018
2521.49,0.54015
2526.4,0.54062
2531.34,0.54135
2536.29,0.54168
2541.26,0.54224
2546.26,0.54299
2551.27,0.54308
2556.3,0.54426
2561.35,0.547
2566.43,0.54791
2571.52,0.54789
2576.63,0.54921
2581.76,0.55154
2586.92,0.55326
2592.09,0.55347
2597.28,0.55304
2602.5,0.55389
2607.74,0.55398
2612.99,0.55341
2618.27,0.55251
2623.57,0.55064
2628.89,0.54948
2634.24,0.54521
2639.6,0.54138
2644.99,0.54094
2650.4,0.54192
2655.83,0.54428
2661.28,0.5492
2666.76,0.55402
2672.26,0.55214
2677.779,0.54423
2683.32,0.53455
2688.89,0.52616
2694.48,0.51616
2700.09,0.50351
2705.73,0.49224
2711.39,0.47888
2717.08,0.46197
2722.78,0.44245
2728.52,0.42659
2734.27,0.41807
2740.05,0.40774
2745.86,0.39434
2751.69,0.38645
2757.54,0.38297
2763.42,0.3805
2769.327,0.37671
2775.26,0.37221
2781.21,0.36823
2787.19,0.36363
2793.2,0.35925
2799.23,0.35673
2805.29,0.35421
2811.38,0.35137
2817.49,0.34955
2823.63,0.34831
2829.79,0.34783
2835.98,0.34767
2842.2,0.34695
2848.45,0.34641
2854.72,0.34618
2861.03,0.34577
2867.36,0.34504
2873.71,0.34388
2880.1,0.34256
2886.51,0.34134
2892.96,0.34024
2899.43,0.33932
2905.93,0.33829
2912.46,0.33727
2919.02,0.33657
2925.61,0.33619
2932.23,0.33614
2938.88,0.33662
2945.56,0.33753
2952.27,0.33845
2959.01,0.33931
2965.78,0.34047
2972.58,0.34212
2979.41,0.34399
2986.28,0.346
2993.18,0.34832
3000.1,0.35086
3007.07,0.35337
3014.06,0.35593
3021.084,0.35845
3028.14,0.36074
3035.23,0.36284
3042.36,0.36495
3049.52,0.36703
3056.71,0.36883
3063.94,0.37042
3071.2,0.37216
3078.49,0.37426
3085.82,0.37663
3093.19,0.37887
3100.59,0.38087
3108.02,0.38291
3115.49,0.38517
3123,0.38794
3130.54,0.39101
3138.12,0.39372
3145.74,0.39606
3153.39,0.39837
3161.09,0.40095
3168.81,0.40364
3176.58,0.40637
3184.39,0.40922
3192.23,0.41195
3200.11,0.41451
3208.03,0.41704
3215.99,0.41962
3223.99,0.42231
3232.03,0.42473
3240.11,0.42693
3248.23,0.42925
3256.39,0.43151
3264.6,0.43379
3272.84,0.43608
3281.13,0.43804
3289.45,0.43982
3297.82,0.44175
3306.24,0.44383
3314.69,0.44588
3323.19,0.44758
3331.74,0.44853
3340.32,0.44879
3348.95,0.44904
3357.63,0.44981
3366.35,0.45109
3375.12,0.45301
3383.93,0.45537
3392.79,0.45717
3401.69,0.45843
3410.64,0.46017
3419.64,0.4626
3428.69,0.46492
3437.79,0.46671
3446.93,0.46792
3456.12,0.46833
3465.36,0.46799
3474.65,0.46795
3483.99,0.46917
3493.38,0.47164
3502.82,0.47498
3512.32,0.47833
3521.86,0.481
3531.46,0.4831
3541.11,0.48488
3550.81,0.48641
3560.56,0.48777
3570.37,0.48908
3580.23,0.49043
3590.15,0.49171
3600.13,0.49279
3610.15,0.49378
3620.24,0.49469
3630.38,0.49561
3640.58,0.49649
3650.83,0.49728
3661.14,0.49805
3671.52,0.4987
3681.95,0.4994
3692.44,0.50028
3702.99,0.5011
3713.6,0.50176
3724.27,0.50232
3735,0.50282
3745.79,0.50348
3756.65,0.50418
3767.57,0.50472
3778.56,0.50501
3789.61,0.50494
3800.72,0.50436
3811.9,0.50331
3823.14,0.50201
3834.45,0.50072
3845.83,0.49956
3857.28,0.49857
3868.79,0.49778
3880.37,0.4972
3892.03,0.4967
3903.75,0.49601
3915.54,0.49509
3927.41,0.49362
3939.35,0.49049
3951.36,0.48545
3963.44,0.48066
3975.6,0.47868
3987.83,0.4805
4000.14,0.48477
4012.52,0.48886
4024.98,0.49164
4037.52,0.49344
4050.14,0.49451
4062.84,0.49492
4075.61,0.49467
4088.47,0.49396
4101.41,0.49308
4114.43,0.49217
4127.53,0.49136
4140.72,0.49055
4153.99,0.48944
4167.35,0.48812
4180.79,0.48735
4194.32,0.49042
4207.94,0.50163
4221.65,0.51713
4235.44,0.52047
4249.33,0.50857
4263.31,0.50047
4277.38,0.49937
4291.54,0.49353
4305.8,0.48104
4320.15,0.46746
4334.6,0.45681
4349.14,0.44979
4363.79,0.4451
4378.53,0.44155
4393.37,0.43899
4408.32,0.43744
4423.36,0.43622
4438.51,0.43485
4453.76,0.43328
4469.12,0.43128
4484.58,0.42861
4500.16,0.4253
4515.84,0.42152
4531.626,0.4174
4547.53,0.4127
4563.54,0.40744
4579.66,0.40182
4595.9,0.39609
4612.26,0.39039
4628.73,0.38477
4645.32,0.3794
4662.03,0.37462
4678.86,0.37007
4695.82,0.36567
4712.89,0.36134
4730.09,0.35703
4747.42,0.35267
4764.87,0.34844
4782.45,0.34428
4800.17,0.34029
4818.01,0.3364
4835.99,0.33269
4854.1,0.32903
4872.35,0.32541
4890.74,0.32169
4909.26,0.31769
4927.93,0.31343
4946.74,0.30924
4965.69,0.30471
4984.79,0.29996
5004.03,0.29534
5023.43,0.29082
5042.98,0.28621
5062.68,0.28165
5082.53,0.27704
5102.54,0.27225
5122.71,0.26734
5143.04,0.26201
5163.53,0.25666
5184.18,0.25226
5205,0.24833
5225.99,0.24399
5247.15,0.23918
5268.48,0.2344
5289.98,0.22992
5311.66,0.22579
5333.52,0.22216
5355.56,0.2176
5377.78,0.21228
5400.19,0.20773
5422.78,0.20343
5445.57,0.19972
5468.54,0.19739
5491.72,0.19624
5515.09,0.19644
5538.65,0.19705
5562.43,0.19705
5586.4,0.19617
5610.58,0.19523
5634.98,0.19385
5659.59,0.19103
5684.41,0.18818
5709.45,0.18604
5734.71,0.18326
5760.2,0.17864
5785.92,0.17334
5811.86,0.16882
5838.04,0.16398
5864.46,0.15913
5891.11,0.15303
5918.01,0.14682
5945.16,0.14131
5972.56,0.13586
6000.21,0.13134
6028.12,0.12893
6056.29,0.12769
6084.72,0.1259
6113.42,0.12436
6142.39,0.12357
6171.64,0.12291
6201.17,0.12184
6230.99,0.12087
6261.09,0.1203
6291.48,0.12011
6322.17,0.1208
6353.16,0.12237
6384.46,0.12382
6416.06,0.12407
6447.99,0.12287
6480.23,0.12112
6512.79,0.11835
6545.68,0.11555
6578.91,0.11234
6612.47,0.10809
6646.38,0.10346
6680.64,0.09962
6715.26,0.09644
6750.23,0.09379
6785.58,0.09154
6821.29,0.08949
6857.38,0.08752
6893.86,0.08559
6930.72,0.08446
6967.98,0.08375
7005.65,0.08291
7043.72,0.082
7082.21,0.08103
7121.13,0.08015
7160.47,0.079
7200.25,0.07728
7240.48,0.07505
7281.15,0.07253
7322.29,0.06964
7363.89,0.06628
7405.97,0.06273
7448.53,0.05902
7491.59,0.05505
7535.15,0.05133
7579.21,0.04779
7623.79,0.04422
7668.91,0.04078
7714.55,0.03746
7760.75,0.03418
7807.5,0.03121
7854.82,0.02865
7902.71,0.02631
7951.2,0.02414
8000.28,0.02278
8049.97,0.02249
8100.28,0.02259
8151.23,0.0229
8202.82,0.02419
8255.06,0.02672
8307.98,0.02964
8361.58,0.03176
8415.88,0.03314
8470.88,0.0345
8526.61,0.03583
8583.08,0.03695
8640.3,0.03749
8698.29,0.03732
8757.06,0.0372
8816.63,0.03762
8877.02,0.0381
8938.24,0.03796
9000.31,0.03674
9063.25,0.03471
9127.08,0.03262
9191.81,0.03103
9257.46,0.03022
9324.07,0.03024
9391.63,0.03109
9460.18,0.03271
9529.74,0.0353
9600.33,0.0386
9671.98,0.0406
9744.7,0.04069
9818.52,0.04038
9893.47,0.04052
9969.58,0.04088
10046.9,0.04123
10125.4,0.04144
10205.1,0.04204
10286.1,0.04392
10368.4,0.04697
10452,0.05018
10537,0.05258
10623.3,0.05397
10711.1,0.05487
10800.4,0.05526
10891.1,0.05474
10983.4,0.05365
11077.3,0.05299
11172.8,0.05318
11270,0.05429
11368.8,0.05657
11469.4,0.05943
11571.8,0.06183
11676.1,0.06403
11782.2,0.06656
11890.3,0.06929
12000.4,0.07149
12112.6,0.07189
12226.8,0.06923
12343.3,0.06329
12462,0.05503
12583,0.04589
12706.3,0.0374
12832.1,0.03185
12960.5,0.02987
13091.4,0.02964
13224.9,0.02992
13361.3,0.03002
13500.5,0.03002
13642.6,0.03032
13787.7,0.03128
13936,0.03194
14087.4,0.03124
14242.3,0.0297
14400.5,0.02817
14562.3,0.02717
14727.8,0.02668
14897.1,0.02697
15070.3,0.02829
15247.6,0.03072
15429.1,0.03464
15615,0.03879
15805.4,0.041
16000.6,0.04071
16200.6,0.03917
16405.6,0.03936
16616,0.04242
16831.8,0.04568
17053.2,0.04617
17280.6,0.04403
17514.1,0.04063
17754,0.0387
18000.6,0.04039
18254.2,0.04367
18514.9,0.04614
18783.3,0.04654
19059.5,0.04518
19344,0.0442
19637,0.04401
19939.2,0.04183
20250.7,0.03698
20572.1,0.03411
20904,0.03523
21246.6,0.03688
21600.8,0.0385
21966.9,0.03951
22345.6,0.03807
22737.6,0.03704
23143.7,0.03895
23564.5,0.04297
24000.8,0.04384
24453.7,0.03758
24923.9,0.03753
25412.6,0.05883