File: csv_library/FTIR_PYX_01.csv
Database of Origin,University of Winnipeg Spectrophotometer Facility
Sample Description,"HOSERLab master pyroxenes, FTIR data"
Date Added,2016-12-14 03:34:49.5076

Data ID,FTIR_PYX_01
Sample ID,PYX003
Mineral Name,Orthopyroxene
Grain Size,<45 um
Viewing Geometry,"i=30, e=0"
Material Class,Inosilicate

Wavelength
2000.56,0.419634
2002.307,0.420702
2004.058,0.421769
2005.812,0.422557
2007.569,0.42348
2009.329,0.4250573
2011.092,0.425572
2012.858,0.427035
2014.627,0.428231
2016.399,0.429176
2018.174,0.43033
2019.952,0.4316522
2021.733,0.432616
2023.518,0.433663
2025.305,0.434494
2027.096,0.435968
2028.89,0.4369693
2030.686,0.438116
2032.486,0.438902
2034.289,0.440441
2036.096,0.441886
2037.905,0.442896
2039.718,0.4441173
2041.533,0.445122
2043.352,0.446429
2045.174,0.447563
2047.0,0.448817
2048.828,0.4497144
2050.66,0.450897
2052.495,0.452606
2054.333,0.453347
2056.175,0.454821
2058.019,0.456684
2059.867,0.458022
2061.718,0.458739
2063.573,0.459892
2065.431,0.4617663
2067.292,0.463226
2069.156,0.4644423
2071.024,0.465694
2072.895,0.466737
2074.769,0.46785
2076.647,0.468637
2078.528,0.469733
2080.412,0.471145
2082.3,0.4730472
2084.191,0.47484
2086.085,0.476277
2087.983,0.477339
2089.885,0.478668
2091.789,0.480304
2093.697,0.481273
2095.609,0.482543
2097.524,0.484279
2099.443,0.486002
2101.364,0.486785
2103.29,0.488044
2105.219,0.489791
2107.151,0.491004
2109.087,0.492268
2111.026,0.494055
2112.969,0.495344
2114.915,0.496989
2116.865,0.498211
2118.819,0.500205
2120.776,0.501871
2122.736,0.502892
2124.7,0.5043088
2126.668,0.5054291
2128.64,0.5063765
2130.614,0.508008
2132.593,0.5101011
2134.575,0.511012
2136.561,0.512602
2138.55,0.5141113
2140.544,0.515744
2142.54,0.516906
2144.541,0.518201
2146.545,0.519259
2148.553,0.520282
2150.564,0.521979
2152.579,0.523251
2154.598,0.52443
2156.621,0.5257851
2158.647,0.527291
2160.678,0.528182
2162.712,0.529823
2164.749,0.5306549
2166.791,0.532602
2168.836,0.534008
2170.885,0.534476
2172.938,0.535789
2174.995,0.537897
2177.056,0.540144
2179.12,0.541244
2181.189,0.541752
2183.261,0.543464
2185.337,0.545064
2187.417,0.546333
2189.501,0.547416
2191.589,0.548225
2193.68,0.54984
2195.776,0.551382
2197.876,0.553086
2199.979,0.555011
2202.087,0.555944
2204.199,0.557106
2206.314,0.5584722
2208.434,0.560146
2210.557,0.561496
2212.685,0.562689
2214.817,0.5638428
2216.952,0.564783
2219.092,0.565997
2221.236,0.567037
2223.384,0.567331
2225.536,0.5685621
2227.692,0.570176
2229.853,0.571143
2232.017,0.570876
2234.186,0.57143
2236.359,0.5729261
2238.536,0.573869
2240.717,0.574699
2242.902,0.57482
2245.092,0.575625
2247.285,0.576569
2249.483,0.577771
2251.686,0.579082
2253.892,0.580005
2256.103,0.581037
2258.318,0.582474
2260.537,0.583791
2262.761,0.584849
2264.989,0.585818
2267.221,0.5861005
2269.458,0.587049
2271.699,0.588228
2273.944,0.588878
2276.194,0.589526
2278.448,0.589995
2280.707,0.590741
2282.97,0.591251
2285.237,0.591484
2287.509,0.5921105
2289.786,0.593059
2292.067,0.593221
2294.352,0.594032
2296.642,0.594442
2298.936,0.59448
2301.235,0.595315
2303.539,0.595998
2305.847,0.596894
2308.159,0.597745
2310.476,0.598191
2312.798,0.598187
2315.124,0.598836
2317.455,0.599807
2319.791,0.599931
2322.131,0.600601
2324.476,0.6016389
2326.826,0.602548
2329.18,0.603173
2331.54,0.604173
2333.903,0.605119
2336.272,0.606149
2338.645,0.6067151
2341.023,0.608157
2343.406,0.609096
2345.794,0.609596
2348.186,0.61023
2350.583,0.611698
2352.986,0.612314
2355.393,0.612813
2357.804,0.613565
2360.221,0.614085
2362.643,0.614255
2365.069,0.61487
2367.501,0.6155491
2369.937,0.615547
2372.379,0.6152378
2374.825,0.615744
2377.276,0.616103
2379.733,0.616543
2382.194,0.616232
2384.661,0.617414
2387.132,0.618287
2389.609,0.618456
2392.09,0.618576
2394.577,0.618845
2397.069,0.619561
2399.566,0.619572
2402.068,0.620176
2404.575,0.621198
2407.088,0.621852
2409.606,0.6218228
2412.128,0.622591
2414.657,0.623718
2417.19,0.624448
2419.729,0.624922
2422.272,0.6247177
2424.822,0.625254
2427.376,0.625748
2429.936,0.626271
2432.501,0.626578
2435.072,0.626524
2437.648,0.626759
2440.229,0.627039
2442.816,0.627479
2445.408,0.627744
2448.006,0.627722
2450.609,0.6281552
2453.217,0.627727
2455.831,0.627795
2458.451,0.627905
2461.076,0.627577
2463.707,0.628061
2466.343,0.628212
2468.985,0.6281364
2471.632,0.628629
2474.285,0.628938
2476.944,0.628977
2479.608,0.628741
2482.278,0.629392
2484.954,0.629494
2487.636,0.629114
2490.323,0.630214
2493.016,0.629885
2495.715,0.630174
2498.419,0.630091
2501.129,0.630095
2503.845,0.6306
2506.567,0.630376
2509.295,0.630504
2512.029,0.630937
2514.769,0.631212
2517.514,0.630839
2520.266,0.63038
2523.023,0.63078
2525.787,0.630145
2528.556,0.630133
2531.331,0.630659
2534.113,0.63125
2536.9,0.631715
2539.694,0.631728
2542.494,0.6319
2545.3,0.632351
2548.112,0.63225
2550.93,0.63291
2553.754,0.632226
2556.585,0.631288
2559.421,0.632443
2562.264,0.634339
2565.113,0.632539
2567.969,0.633246
2570.831,0.633489
2573.699,0.633958
2576.573,0.633433
2579.454,0.633198
2582.342,0.634398
2585.235,0.63419
2588.135,0.633423
2591.042,0.633285
2593.955,0.639339
2596.874,0.634341
2599.8,0.632372
2602.733,0.634002
2605.672,0.635401
2608.618,0.633314
2611.57,0.6324407
2614.529,0.63351
2617.495,0.63457
2620.467,0.632982
2623.446,0.630886
2626.431,0.632473
2629.424,0.634394
2632.423,0.632742
2635.429,0.630625
2638.442,0.630419
2641.461,0.6304078
2644.488,0.630755
2647.521,0.629835
2650.561,0.630111
2653.609,0.630834
2656.663,0.629699
2659.724,0.629958
2662.792,0.630152
2665.867,0.633427
2668.949,0.632842
2672.038,0.628906
2675.135,0.628
2678.238,0.626713
2681.349,0.619285
2684.467,0.6121178
2687.591,0.599049
2690.724,0.58451
2693.863,0.575195
2697.01,0.563462
2700.164,0.556933
2703.325,0.548564
2706.494,0.538415
2709.67,0.531743
2712.853,0.509722
2716.044,0.486246
2719.242,0.4723624
2722.448,0.4687491
2725.661,0.46083
2728.882,0.4422669
2732.111,0.431994
2735.347,0.431186
2738.59,0.429631
2741.841,0.423015
2745.1,0.414022
2748.367,0.412482
2751.641,0.410117
2754.923,0.410214
2758.213,0.405374
2761.51,0.403163
2764.816,0.401042
2768.129,0.40061
2771.45,0.400761
2774.779,0.3994529
2778.116,0.398889
2781.461,0.397959
2784.814,0.397623
2788.175,0.39698
2791.544,0.394187
2794.922,0.391889
2798.307,0.390155
2801.7,0.388403
2805.102,0.385574
2808.512,0.383713
2811.93,0.38373
2815.356,0.384566
2818.791,0.385293
2822.233,0.385286
2825.685,0.385524
2829.144,0.384414
2832.612,0.383345
2836.089,0.381646
2839.574,0.38063
2843.067,0.379567
2846.569,0.379499
2850.08,0.3788945
2853.599,0.379537
2857.127,0.3788077
2860.664,0.378887
2864.209,0.379178
2867.763,0.377472
2871.325,0.376207
2874.897,0.375415
2878.477,0.374524
2882.066,0.374302
2885.664,0.373493
2889.271,0.373134
2892.887,0.372194
2896.512,0.370723
2900.146,0.37011
2903.789,0.369611
2907.441,0.3691344
2911.103,0.368146
2914.773,0.368047
2918.453,0.368361
2922.142,0.367183
2925.84,0.366359
2929.547,0.3655865
2933.264,0.365863
2936.99,0.366529
2940.726,0.366728
2944.471,0.367236
2948.225,0.368652
2951.989,0.368429
2955.763,0.369556
2959.546,0.369144
2963.339,0.3693423
2967.141,0.371208
2970.953,0.372168
2974.775,0.373554
2978.607,0.374078
2982.448,0.374151
2986.3,0.374768
2990.161,0.3759678
2994.032,0.376913
2997.913,0.37747
3001.804,0.378999
3005.705,0.379306
3009.616,0.379796
3013.538,0.381024
3017.469,0.381686
3021.411,0.382164
3025.363,0.38299
3029.325,0.384878
3033.298,0.386639
3037.281,0.385722
3041.274,0.386572
3045.278,0.388012
3049.292,0.388053
3053.317,0.38838
3057.352,0.388722
3061.398,0.390041
3065.455,0.391472
3069.522,0.391149
3073.6,0.391731
3077.689,0.393153
3081.788,0.3941481
3085.899,0.39499
3090.02,0.395908
3094.153,0.395711
3098.296,0.3968
3102.45,0.3981818
3106.616,0.397809
3110.792,0.398861
3114.98,0.400426
3119.179,0.401067
3123.389,0.401769
3127.611,0.403194
3131.844,0.404368
3136.088,0.405493
3140.344,0.407056
3144.611,0.408392
3148.89,0.410314
3153.18,0.411823
3157.482,0.413159
3161.796,0.414567
3166.121,0.4161793
3170.458,0.417684
3174.807,0.41871
3179.168,0.42125
3183.541,0.42286
3187.926,0.423205
3192.323,0.425083
3196.731,0.425921
3201.152,0.426221
3205.585,0.427371
3210.031,0.428416
3214.488,0.431332
3218.958,0.43259
3223.441,0.431995
3227.936,0.432721
3232.443,0.432989
3236.963,0.433993
3241.495,0.4345
3246.04,0.436173
3250.598,0.437359
3255.168,0.438923
3259.751,0.439814
3264.347,0.439205
3268.956,0.440517
3273.578,0.441334
3278.213,0.441642
3282.861,0.443185
3287.522,0.4444897
3292.196,0.445277
3296.884,0.446587
3301.585,0.44637
3306.299,0.44711
3311.026,0.447336
3315.767,0.448079
3320.522,0.448875
3325.29,0.450354
3330.072,0.451722
3334.867,0.450548
3339.676,0.450711
3344.499,0.451298
3349.336,0.451778
3354.187,0.45133
3359.052,0.450202
3363.931,0.450532
3368.824,0.450394
3373.731,0.449463
3378.652,0.448796
3383.588,0.449236
3388.538,0.449998
3393.502,0.450489
3398.481,0.450768
3403.475,0.450478
3408.483,0.449665
3413.506,0.447859
3418.543,0.448201
3423.596,0.450437
3428.663,0.452146
3433.745,0.454462
3438.842,0.457188
3443.954,0.459255
3449.082,0.45886
3454.224,0.459063
3459.382,0.4597759
3464.556,0.460564
3469.744,0.460124
3474.948,0.4594539
3480.168,0.459462
3485.403,0.460161
3490.654,0.461791
3495.921,0.461443
3501.204,0.460817
3506.502,0.461557
3511.817,0.463172
3517.147,0.465254
3522.494,0.467123
3527.857,0.468108
3533.236,0.470102
3538.631,0.470664
3544.043,0.470053
3549.471,0.470649
3554.916,0.471358
3560.378,0.471854
3565.856,0.472106
3571.351,0.4724289
3576.863,0.472385
3582.392,0.473033
3587.938,0.473634
3593.501,0.473528
3599.082,0.47386
3604.679,0.4731699
3610.294,0.473379
3615.926,0.474466
3621.576,0.47415
3627.244,0.473876
3632.929,0.474277
3638.632,0.474517
3644.353,0.474637
3650.091,0.475222
3655.848,0.475033
3661.623,0.474788
3667.416,0.474805
3673.227,0.475122
3679.057,0.475387
3684.905,0.475501
3690.771,0.475271
3696.656,0.475186
3702.56,0.4749131
3708.483,0.474923
3714.425,0.474765
3720.385,0.475289
3726.365,0.475517
3732.364,0.47596
3738.382,0.47615
3744.419,0.476482
3750.476,0.476838
3756.553,0.476901
3762.649,0.476955
3768.764,0.4770538
3774.9,0.476927
3781.056,0.477178
3787.231,0.477368
3793.427,0.477705
3799.643,0.477803
3805.879,0.477925
3812.135,0.478041
3818.412,0.478284
3824.71,0.47862
3831.029,0.4790952
3837.368,0.4796507
3843.728,0.480029
3850.109,0.48036
3856.512,0.480686
3862.935,0.481131
3869.38,0.481268
3875.846,0.481518
3882.334,0.481563
3888.844,0.482066
3895.375,0.482986
3901.929,0.4832365
3908.504,0.483081
3915.101,0.483362
3921.721,0.48327
3928.363,0.483471
3935.027,0.484061
3941.714,0.484931
3948.423,0.485559
3955.156,0.485821
3961.911,0.486943
3968.689,0.488031
3975.491,0.488546
3982.315,0.4894867
3989.163,0.4904484
3996.035,0.490999
4002.93,0.491986
4009.849,0.492768
4016.791,0.493525
4023.758,0.494237
4030.749,0.495309
4037.764,0.496326
4044.804,0.496921
4051.867,0.49818
4058.956,0.499191
4066.069,0.500382
4073.207,0.501217
4080.371,0.502148
4087.559,0.50342
4094.773,0.504463
4102.012,0.505844
4109.276,0.507164
4116.566,0.508423
4123.882,0.509936
4131.224,0.51135
4138.592,0.512704
4145.987,0.514534
4153.407,0.51654
4160.854,0.51848
4168.328,0.519829
4175.829,0.521213
4183.356,0.523209
4190.911,0.525678
4198.493,0.530288
4206.102,0.5404759
4213.739,0.5552894
4221.404,0.569807
4229.096,0.58145
4236.816,0.588441
4244.565,0.588133
4252.341,0.575856
4260.146,0.569995
4267.98,0.584615
4275.843,0.589621
4283.734,0.591287
4291.655,0.593198
4299.604,0.592388
4307.583,0.5923826
4315.592,0.588818
4323.631,0.586241
4331.699,0.585012
4339.797,0.583241
4347.926,0.582997
4356.085,0.584251
4364.275,0.585473
4372.495,0.587676
4380.746,0.590068
4389.029,0.593711
4397.342,0.597519
4405.687,0.600833
4414.064,0.604249
4422.472,0.608143
4430.913,0.61128
4439.386,0.614216
4447.891,0.616976
4456.428,0.619066
4464.998,0.621882
4473.602,0.624504
4482.238,0.627031
4490.908,0.628827
4499.611,0.631095
4508.347,0.633867
4517.118,0.635631
4525.923,0.637423
4534.762,0.63962
4543.635,0.6413622
4552.543,0.643928
4561.487,0.646383
4570.465,0.647856
4579.478,0.649749
4588.527,0.652678
4597.612,0.654648
4606.732,0.657721
4615.889,0.659292
4625.082,0.660991
4634.312,0.662049
4643.578,0.663553
4652.882,0.665308
4662.223,0.667006
4671.601,0.669207
4681.017,0.671956
4690.471,0.6720262
4699.962,0.674576
4709.493,0.677964
4719.062,0.679481
4728.669,0.681879
4738.316,0.6845121
4748.002,0.686685
4757.728,0.689801
4767.494,0.692569
4777.299,0.695664
4787.145,0.698327
4797.032,0.70039
4806.959,0.702247
4816.927,0.705535
4826.937,0.70659
4836.988,0.707633
4847.081,0.709835
4857.216,0.7129
4867.393,0.714786
4877.613,0.715337
4887.876,0.717426
4898.182,0.721211
4908.532,0.723228
4918.925,0.724511
4929.362,0.727554
4939.844,0.7299168
4950.37,0.732519
4960.941,0.734914
4971.556,0.736113
4982.218,0.738175
4992.925,0.739594
5003.678,0.742137
5014.477,0.7456904
5025.323,0.747998
5036.216,0.748162
5047.156,0.749532
5058.143,0.750922
5069.179,0.75229
5080.262,0.755956
5091.394,0.757026
5102.574,0.757985
5113.804,0.759933
5125.083,0.761416
5136.412,0.7651617
5147.791,0.770456
5159.22,0.769168
5170.7,0.771116
5182.231,0.773733
5193.814,0.779035
5205.448,0.7853228
5217.134,0.7874802
5228.873,0.7874202
5240.665,0.792048
5252.51,0.79367
5264.408,0.796925
5276.36,0.801548
5288.367,0.806749
5300.428,0.8077939
5312.544,0.808723
5324.715,0.811331
5336.942,0.815497
5349.226,0.826087
5361.566,0.822295
5373.962,0.821712
5386.417,0.823519
5398.928,0.826127
5411.498,0.834546
5424.127,0.842709
5436.814,0.837816
5449.561,0.842931
5462.368,0.857431
5475.234,0.866287
5488.162,0.86981
5501.15,0.874937
5514.2,0.901644
5527.312,0.934724
5540.486,0.96754
5553.723,0.868263
5567.023,0.615058
5580.387,0.598132
5593.815,0.683878
5607.307,0.719757
5620.865,0.74616
5634.489,0.763806
5648.178,0.774326
5661.934,0.779165
5675.757,0.789018
5689.647,0.795228
5703.606,0.802444
5717.633,0.811602
5731.729,0.814259
5745.894,0.819528
5760.13,0.830335
5774.436,0.834136
5788.813,0.829542
5803.262,0.834861
5817.782,0.850021
5832.376,0.850458
5847.043,0.849206
5861.783,0.858962
5876.598,0.868607
5891.488,0.869862
5906.454,0.862404
5921.495,0.867375
5936.613,0.877043
5951.809,0.87039
5967.082,0.8738185
5982.433,0.8760826
5997.864,0.873874
6013.374,0.874283
6028.964,0.875363
6044.636,0.889615
6060.389,0.88718
6076.224,0.885262
6092.141,0.881685
6108.143,0.891925
6124.228,0.887315
6140.398,0.889569
6156.654,0.8929
6172.996,0.894458
6189.424,0.896537
6205.94,0.896538
6222.544,0.898645
6239.237,0.900397
6256.02,0.9018896
6272.893,0.905302
6289.858,0.90591
6306.914,0.907733
6324.062,0.91171
6341.304,0.916657
6358.64,0.918558
6376.071,0.919601
6393.598,0.920568
6411.221,0.93232
6428.941,0.924628
6446.759,0.923116
6464.676,0.927288
6482.693,0.935627
6500.81,0.931613
6519.029,0.93182
6537.35,0.932128
6555.774,0.936942
6574.302,0.940232
6592.934,0.939204
6611.673,0.940833
6630.518,0.947069
6649.47,0.940587
6668.532,0.943508
6687.702,0.943235
6706.983,0.947159
6726.375,0.944947
6745.879,0.944966
6765.497,0.949185
6785.229,0.951352
6805.076,0.948479
6825.039,0.950842
6845.12,0.954808
6865.319,0.955976
6885.637,0.95261
6906.076,0.954088
6926.636,0.953949
6947.319,0.95738
6968.125,0.9577428
6989.057,0.958428
7010.114,0.959321
7031.298,0.962805
7052.611,0.963626
7074.052,0.962627
7095.625,0.9638419
7117.329,0.9659117
7139.166,0.968292
7161.137,0.969135
7183.244,0.9687657
7205.487,0.970143
7227.869,0.970573
7250.39,0.972518
7273.051,0.97389
7295.854,0.974289
7318.8,0.975824
7341.891,0.977021
7365.128,0.977145
7388.512,0.978557
7412.045,0.979982
7435.728,0.98091
7459.562,0.98267
7483.55,0.982951
7507.692,0.983504
7531.99,0.984326
7556.446,0.985393
7581.061,0.986266
7605.837,0.9865692
7630.774,0.9866996
7655.876,0.987003
7681.143,0.988116
7706.577,0.988832
7732.18,0.98944
7757.953,0.990439
7783.899,0.991235
7810.018,0.992305
7836.313,0.993596
7862.786,0.994886
7889.437,0.996299
7916.27,0.997287
7943.285,0.998332
7970.485,0.999709
7997.872,0.01000987
8025.448,0.0100216
8053.214,0.0100319
8081.173,0.0100413
8109.326,0.010049
8137.676,0.0100609
8166.224,0.0100667
8194.973,0.0100777
8223.925,0.0100886
8253.082,0.0100975
8282.446,0.0101082
8312.02,0.0101195
8341.805,0.0101299
8371.804,0.0101387
8402.02,0.01014875
8432.454,0.0101575
8463.109,0.0101672
8493.988,0.0101763
8525.092,0.010182
8556.425,0.0101912
8587.989,0.0101999
8619.786,0.0102055
8651.819,0.0102112
8684.091,0.0102189
8716.604,0.0102282
8749.361,0.0102375
8782.365,0.0102471
8815.619,0.0102567
8849.125,0.0102677
8882.887,0.0102737
8916.907,0.0102838
8951.188,0.0102922
8985.733,0.0102962
9020.546,0.0102972
9055.629,0.0102934
9090.986,0.0102912
9126.62,0.0102915
9162.534,0.0102819
9198.731,0.010275
9235.215,0.0102708
9271.99,0.0102664
9309.058,0.0102664
9346.423,0.0102645
9384.089,0.0102633
9422.06,0.0102661
9460.339,0.0102681
9498.929,0.010274
9537.836,0.0102786
9577.062,0.0102817
9616.612,0.0102837
9656.49,0.0102856
9696.699,0.0102922
9737.244,0.0102954
9778.129,0.0102963
9819.359,0.0102962
9860.938,0.0102992
9902.869,0.0103011
9945.159,0.0102991
9987.811,0.0102967
10030.83,0.0102996
10074.221,0.0102995
10117.988,0.0103014
10162.137,0.0103069
10206.672,0.0103109
10251.6,0.0103155
10296.924,0.0103192
10342.65,0.0103234
10388.784,0.0103284
10435.331,0.0103307
10482.296,0.0103287
10529.686,0.0103276
10577.505,0.0103325
10625.761,0.0103364
10674.458,0.0103366
10723.604,0.0103364
10773.203,0.0103395
10823.264,0.01034
10873.791,0.0103395
10924.791,0.0103415
10976.272,0.0103451
11028.24,0.0103489
11080.702,0.0103508
11133.665,0.0103473
11187.137,0.0103457
11241.124,0.0103414
11295.634,0.010338
11350.675,0.0103356
11406.254,0.0103302
11462.38,0.0103273
11519.06,0.0103215
11576.304,0.0103162
11634.118,0.0103133
11692.513,0.0103117
11751.496,0.0103088
11811.077,0.0103058
11871.265,0.0103074
11932.068,0.0103093
11993.497,0.0103058
12055.562,0.0103104
12118.271,0.0103123
12181.636,0.0103067
12245.667,0.0103047
12310.373,0.0103031
12375.767,0.0102997
12441.859,0.0102961
12508.659,0.0102989
12576.18,0.0102952
12644.434,0.0102907
12713.432,0.0102921
12783.187,0.0102943
12853.71,0.0102982
12925.016,0.0102997
12997.116,0.010304
13070.025,0.0103091
13143.756,0.0103088
13218.322,0.0103115
13293.74,0.0103096
13370.021,0.0103123
13447.183,0.0103127
13525.24,0.0103059
13604.208,0.0103
13684.103,0.0102985
13764.941,0.010287
13846.739,0.0102806
13929.515,0.0102809
14013.285,0.010271
14098.068,0.0102652
14183.883,0.0102584
14270.749,0.0102449
14358.684,0.0102429
14447.709,0.010234
14537.844,0.0102098
14629.109,0.0101974
14721.528,0.0101866
14815.121,0.0101749
14909.91,0.0101089
15005.92,0.0101069
15103.173,0.0101044
15201.695,0.0100529
15301.509,0.996616
15402.642,0.987644
15505.12,0.972133
15608.97,0.9613741
15714.22,0.921982
15820.897,0.888446
15929.033,0.867379
15965.407,0.845683