File: csv_library/FTIR_PLG_07.csv
Database of Origin,University of Winnipeg Spectrophotometer Facility
Sample Description,IR Reflectance spectra of plagioclase with a Bruker Vertex 70 FTIR. See Master Plagioclase in PSF database for additional info.
Date Added,2016-11-22 04:00:06.364986

Data ID,FTIR_PLG_07
Sample ID,PLG115
Mineral Name,Plagioclase
Grain Size,<45 um
Viewing Geometry,"i30, e0"
Resolution,7.71cm-1
Material Class,Tectosilicate

Wavelength
1670.16,0.48153
1672.32,0.48126
1674.48,0.48136
1676.64,0.48118
1678.81,0.48141
1680.99,0.48232
1683.18,0.48275
1685.36,0.48203
1687.56,0.48101
1689.76,0.48063
1691.96,0.48071
1694.18,0.481
1696.39,0.48129
1698.62,0.48118
1700.85,0.48125
1703.08,0.48153
1705.32,0.48142
1707.57,0.48127
1709.82,0.48137
1712.08,0.48131
1714.35,0.48106
1716.62,0.48105
1718.89,0.48131
1721.18,0.48165
1723.46,0.48133
1725.76,0.48063
1728.06,0.4805
1730.37,0.48079
1732.68,0.48083
1735,0.4809
1737.33,0.48106
1739.66,0.48087
1742,0.48054
1744.34,0.48027
1746.69,0.48002
1749.05,0.48
1751.41,0.48006
1753.78,0.4799
1756.16,0.47967
1758.54,0.47969
1760.93,0.47976
1763.33,0.47983
1765.73,0.47985
1768.14,0.47961
1770.55,0.47973
1772.98,0.4802
1775.4,0.48018
1777.84,0.47977
1780.28,0.47964
1782.73,0.47973
1785.19,0.4795
1787.65,0.47911
1790.12,0.47888
1792.59,0.47899
1795.08,0.47927
1797.57,0.47947
1800.06,0.47973
1802.57,0.48002
1805.08,0.48019
1807.59,0.48035
1810.12,0.48064
1812.65,0.48106
1815.19,0.48144
1817.73,0.48258
1820.29,0.48381
1822.85,0.48361
1825.42,0.48389
1827.99,0.4849
1830.57,0.48479
1833.16,0.48496
1835.76,0.48676
1838.36,0.48818
1840.97,0.48733
1843.59,0.48558
1846.22,0.48596
1848.85,0.48575
1851.49,0.4846
1854.14,0.48503
1856.8,0.48531
1859.46,0.4846
1862.13,0.48301
1864.81,0.48312
1867.5,0.48631
1870.19,0.48969
1872.9,0.48944
1875.61,0.48559
1878.33,0.48132
1881.05,0.47932
1883.79,0.47904
1886.53,0.47855
1889.28,0.47824
1892.04,0.47744
1894.8,0.47665
1897.58,0.4779
1900.36,0.47885
1903.15,0.47823
1905.95,0.47649
1908.76,0.47387
1911.57,0.47291
1914.39,0.47268
1917.23,0.47261
1920.07,0.47328
1922.92,0.47267
1925.77,0.47163
1928.64,0.47128
1931.51,0.47087
1934.4,0.47078
1937.29,0.47098
1940.19,0.4708
1943.1,0.47057
1946.01,0.47046
1948.94,0.47016
1951.88,0.47014
1954.82,0.47057
1957.77,0.471
1960.73,0.47111
1963.7,0.47095
1966.68,0.47085
1969.67,0.47097
1972.67,0.4712
1975.68,0.47135
1978.69,0.47141
1981.72,0.4715
1984.76,0.47165
1987.8,0.4719
1990.85,0.47214
1993.92,0.47242
1996.99,0.47282
2000.07,0.47287
2003.16,0.47249
2006.26,0.47239
2009.37,0.4727
2012.49,0.47293
2015.62,0.47299
2018.76,0.47324
2021.91,0.47343
2025.07,0.47324
2028.24,0.47326
2031.42,0.47372
2034.61,0.47403
2037.81,0.47394
2041.02,0.47381
2044.24,0.47378
2047.46,0.47373
2050.7,0.47364
2053.95,0.47367
2057.21,0.47394
2060.48,0.47428
2063.77,0.47442
2067.06,0.47429
2070.36,0.47408
2073.67,0.47407
2077,0.47417
2080.33,0.47399
2083.67,0.47376
2087.03,0.47391
2090.4,0.47414
2093.77,0.474
2097.16,0.47373
2100.56,0.47375
2103.97,0.47381
2107.39,0.47397
2110.82,0.47437
2114.27,0.47455
2117.72,0.47427
2121.19,0.47399
2124.66,0.47405
2128.15,0.47417
2131.65,0.47392
2135.16,0.47362
2138.69,0.4736
2142.22,0.47358
2145.77,0.47361
2149.33,0.4737
2152.9,0.47364
2156.48,0.47355
2160.08,0.47343
2163.68,0.47319
2167.3,0.47297
2170.93,0.47287
2174.57,0.47268
2178.23,0.47231
2181.89,0.47203
2185.57,0.47192
2189.27,0.47169
2192.97,0.47129
2196.69,0.47106
2200.42,0.47095
2204.16,0.47063
2207.91,0.47042
2211.68,0.47034
2215.46,0.47024
2219.26,0.47017
2223.06,0.47003
2226.88,0.46972
2230.71,0.46919
2234.56,0.46848
2238.42,0.46796
2242.29,0.46789
2246.18,0.46794
2250.08,0.46794
2253.99,0.46811
2257.92,0.46837
2261.86,0.46855
2265.813,0.46864
2269.78,0.46855
2273.76,0.46839
2277.76,0.46831
2281.77,0.4681
2285.79,0.46781
2289.83,0.46766
2293.89,0.46753
2297.95,0.46722
2302.03,0.46682
2306.13,0.46653
2310.24,0.46602
2314.37,0.46536
2318.51,0.4651
2322.66,0.46519
2326.83,0.46521
2331.02,0.46503
2335.22,0.46485
2339.43,0.46483
2343.66,0.46493
2347.91,0.46502
2352.17,0.46511
2356.45,0.46518
2360.74,0.46516
2365.05,0.46501
2369.37,0.46482
2373.71,0.46475
2378.06,0.46471
2382.44,0.46447
2386.82,0.46426
2391.23,0.46419
2395.65,0.46415
2400.08,0.46394
2404.54,0.46352
2409.01,0.46315
2413.49,0.46294
2417.99,0.46269
2422.51,0.46223
2427.05,0.46179
2431.6,0.46157
2436.17,0.46139
2440.76,0.46102
2445.37,0.46067
2449.99,0.46039
2454.63,0.45994
2459.29,0.45934
2463.96,0.45902
2468.66,0.45883
2473.37,0.4584
2478.1,0.45797
2482.84,0.45772
2487.61,0.45747
2492.39,0.45723
2497.2,0.45698
2502.02,0.45694
2506.86,0.45697
2511.72,0.45711
2516.59,0.4573
2521.49,0.45739
2526.4,0.45822
2531.34,0.45978
2536.29,0.46081
2541.26,0.46219
2546.26,0.46385
2551.27,0.46357
2556.3,0.46509
2561.35,0.47059
2566.43,0.47312
2571.52,0.4734
2576.63,0.47583
2581.76,0.47962
2586.92,0.48233
2592.09,0.4829
2597.28,0.48265
2602.5,0.48412
2607.74,0.48402
2612.99,0.48248
2618.27,0.48029
2623.57,0.47695
2628.89,0.47532
2634.24,0.46797
2639.6,0.46086
2644.99,0.45954
2650.4,0.46098
2655.83,0.46548
2661.28,0.47469
2666.76,0.48273
2672.26,0.47815
2677.779,0.4624
2683.32,0.44216
2688.89,0.4224
2694.48,0.39778
2700.09,0.36836
2705.73,0.34209
2711.39,0.31741
2717.08,0.29716
2722.78,0.27678
2728.52,0.25753
2734.27,0.2476
2740.05,0.2386
2745.86,0.22733
2751.69,0.22137
2757.54,0.21925
2763.42,0.21803
2769.327,0.21626
2775.26,0.21452
2781.21,0.21416
2787.19,0.21332
2793.2,0.21185
2799.23,0.21187
2805.29,0.21119
2811.38,0.20897
2817.49,0.20753
2823.63,0.20635
2829.79,0.20573
2835.98,0.20535
2842.2,0.20417
2848.45,0.20326
2854.72,0.20231
2861.03,0.20088
2867.36,0.19969
2873.71,0.19866
2880.1,0.19787
2886.51,0.19738
2892.96,0.1969
2899.43,0.1967
2905.93,0.19631
2912.46,0.19554
2919.02,0.19494
2925.61,0.19454
2932.23,0.19445
2938.88,0.1949
2945.56,0.19556
2952.27,0.19621
2959.01,0.19714
2965.78,0.19834
2972.58,0.1996
2979.41,0.2009
2986.28,0.20226
2993.18,0.20374
3000.1,0.20527
3007.07,0.2066
3014.06,0.20788
3021.084,0.20937
3028.14,0.21085
3035.23,0.21215
3042.36,0.21334
3049.52,0.21458
3056.71,0.21573
3063.94,0.21666
3071.2,0.21772
3078.49,0.21922
3085.82,0.22092
3093.19,0.22269
3100.59,0.22472
3108.02,0.22683
3115.49,0.22868
3123,0.23073
3130.54,0.23337
3138.12,0.23593
3145.74,0.23829
3153.39,0.24077
3161.09,0.24345
3168.81,0.24642
3176.58,0.2494
3184.39,0.25232
3192.23,0.25534
3200.11,0.25841
3208.03,0.26147
3215.99,0.26453
3223.99,0.26756
3232.03,0.27027
3240.11,0.27283
3248.23,0.27552
3256.39,0.27831
3264.6,0.28124
3272.84,0.28423
3281.13,0.28715
3289.45,0.29021
3297.82,0.2933
3306.24,0.29609
3314.69,0.29892
3323.19,0.30179
3331.74,0.30428
3340.32,0.30638
3348.95,0.3082
3357.63,0.30966
3366.35,0.31069
3375.12,0.3119
3383.93,0.31383
3392.79,0.31548
3401.69,0.31548
3410.64,0.31488
3419.64,0.31686
3428.69,0.32239
3437.79,0.32852
3446.93,0.33325
3456.12,0.33708
3465.36,0.34013
3474.65,0.34225
3483.99,0.34368
3493.38,0.34481
3502.82,0.34721
3512.32,0.35249
3521.86,0.35877
3531.46,0.36347
3541.11,0.3668
3550.81,0.36975
3560.56,0.37247
3570.37,0.37501
3580.23,0.37741
3590.15,0.3797
3600.13,0.38183
3610.15,0.38383
3620.24,0.38575
3630.38,0.38763
3640.58,0.38947
3650.83,0.39127
3661.14,0.39294
3671.52,0.39441
3681.95,0.39583
3692.44,0.39727
3702.99,0.3987
3713.6,0.39999
3724.27,0.40114
3735,0.40229
3745.79,0.40337
3756.65,0.40431
3767.57,0.40512
3778.56,0.40587
3789.61,0.4065
3800.72,0.40688
3811.9,0.40718
3823.14,0.40765
3834.45,0.40808
3845.83,0.40823
3857.28,0.4082
3868.79,0.40808
3880.37,0.40792
3892.03,0.40767
3903.75,0.4072
3915.54,0.4067
3927.41,0.40621
3939.35,0.40548
3951.36,0.40456
3963.44,0.40393
3975.6,0.40392
3987.83,0.40421
4000.14,0.40443
4012.52,0.40448
4024.98,0.40425
4037.52,0.40376
4050.14,0.40312
4062.84,0.40237
4075.61,0.40143
4088.47,0.4005
4101.41,0.39965
4114.43,0.39867
4127.53,0.39745
4140.72,0.39626
4153.99,0.39524
4167.35,0.39422
4180.79,0.39395
4194.32,0.39848
4207.94,0.41297
4221.65,0.43327
4235.44,0.4397
4249.33,0.42811
4263.31,0.42118
4277.38,0.42211
4291.54,0.41648
4305.8,0.40298
4320.15,0.38862
4334.6,0.37774
4349.14,0.37073
4363.79,0.36589
4378.53,0.36222
4393.37,0.35932
4408.32,0.35654
4423.36,0.3534
4438.51,0.34991
4453.76,0.34632
4469.12,0.34271
4484.58,0.33885
4500.16,0.33455
4515.84,0.32989
4531.626,0.32526
4547.53,0.32074
4563.54,0.31629
4579.66,0.31169
4595.9,0.30696
4612.26,0.30209
4628.73,0.29702
4645.32,0.29202
4662.03,0.28751
4678.86,0.28324
4695.82,0.27935
4712.89,0.276
4730.09,0.27322
4747.42,0.2708
4764.87,0.26869
4782.45,0.26669
4800.17,0.26476
4818.01,0.26291
4835.99,0.26128
4854.1,0.2594
4872.35,0.25745
4890.74,0.2557
4909.26,0.25382
4927.93,0.25159
4946.74,0.249
4965.69,0.24542
4984.79,0.24131
5004.03,0.2374
5023.43,0.23304
5042.98,0.22757
5062.68,0.22177
5082.53,0.21581
5102.54,0.20954
5122.71,0.20388
5143.04,0.19863
5163.53,0.19305
5184.18,0.18823
5205,0.1841
5225.99,0.17968
5247.15,0.17568
5268.48,0.17273
5289.98,0.17003
5311.66,0.16709
5333.52,0.16466
5355.56,0.16124
5377.78,0.15637
5400.19,0.15219
5422.78,0.14802
5445.57,0.14318
5468.54,0.13779
5491.72,0.13171
5515.09,0.12666
5538.65,0.12296
5562.43,0.11969
5586.4,0.11595
5610.58,0.11315
5634.98,0.1117
5659.59,0.10986
5684.41,0.10841
5709.45,0.10835
5734.71,0.10806
5760.2,0.10624
5785.92,0.10409
5811.86,0.10328
5838.04,0.10278
5864.46,0.10195
5891.11,0.10002
5918.01,0.09725
5945.16,0.09458
5972.56,0.09159
6000.21,0.08892
6028.12,0.08778
6056.29,0.08701
6084.72,0.08467
6113.42,0.08233
6142.39,0.08113
6171.64,0.08072
6201.17,0.08012
6230.99,0.07946
6261.09,0.07927
6291.48,0.07975
6322.17,0.08122
6353.16,0.08325
6384.46,0.0849
6416.06,0.08555
6447.99,0.0852
6480.23,0.08482
6512.79,0.08313
6545.68,0.08098
6578.91,0.07891
6612.47,0.07623
6646.38,0.073
6680.64,0.06966
6715.26,0.06652
6750.23,0.06404
6785.58,0.06202
6821.29,0.05998
6857.38,0.05773
6893.86,0.055
6930.72,0.05285
6967.98,0.05128
7005.65,0.04962
7043.72,0.04728
7082.21,0.04451
7121.13,0.04237
7160.47,0.04001
7200.25,0.03663
7240.48,0.03327
7281.15,0.03041
7322.29,0.02764
7363.89,0.02476
7405.97,0.02205
7448.53,0.01961
7491.59,0.01723
7535.15,0.01509
7579.21,0.01315
7623.79,0.01138
7668.91,0.00984
7714.55,0.0087
7760.75,0.00789
7807.5,0.00726
7854.82,0.00685
7902.71,0.00693
7951.2,0.00764
8000.28,0.0091
8049.97,0.01143
8100.28,0.01505
8151.23,0.02073
8202.82,0.02876
8255.06,0.03792
8307.98,0.04541
8361.58,0.04919
8415.88,0.05001
8470.88,0.04945
8526.61,0.04842
8583.08,0.04738
8640.3,0.04663
8698.29,0.04607
8757.06,0.04528
8816.63,0.04414
8877.02,0.0428
8938.24,0.04123
9000.31,0.03954
9063.25,0.03797
9127.08,0.03687
9191.81,0.03624
9257.46,0.03609
9324.07,0.0368
9391.63,0.03884
9460.18,0.0426
9529.74,0.04764
9600.33,0.05245
9671.98,0.0558
9744.7,0.05759
9818.52,0.05823
9893.47,0.05797
9969.58,0.05663
10046.9,0.05448
10125.4,0.05199
10205.1,0.04929
10286.1,0.04652
10368.4,0.04429
10452,0.04295
10537,0.04212
10623.3,0.04152
10711.1,0.0413
10800.4,0.04159
10891.1,0.04259
10983.4,0.04462
11077.3,0.04791
11172.8,0.0521
11270,0.05582
11368.8,0.05792
11469.4,0.0587
11571.8,0.05918
11676.1,0.06037
11782.2,0.06266
11890.3,0.06471
12000.4,0.06405
12112.6,0.05867
12226.8,0.04862
12343.3,0.03731
12462,0.02859
12583,0.0238
12706.3,0.02197
12832.1,0.02137
12960.5,0.02122
13091.4,0.02153
13224.9,0.0221
13361.3,0.0225
13500.5,0.02278
13642.6,0.02266
13787.7,0.02216
13936,0.0222
14087.4,0.02272
14242.3,0.02295
14400.5,0.02294
14562.3,0.02214
14727.8,0.02037
14897.1,0.01899
15070.3,0.01948
15247.6,0.02262
15429.1,0.02649
15615,0.02805
15805.4,0.02868
16000.6,0.03193
16200.6,0.0366
16405.6,0.0396
16616,0.04101
16831.8,0.04101
17053.2,0.03912
17280.6,0.03801
17514.1,0.03774
17754,0.03574
18000.6,0.03401
18254.2,0.03552
18514.9,0.03835
18783.3,0.03901
19059.5,0.03663
19344,0.03143
19637,0.02776
19939.2,0.02686
20250.7,0.02569
20572.1,0.02725
20904,0.03338
21246.6,0.0355
21600.8,0.03102
21966.9,0.02782
22345.6,0.02875
22737.6,0.03301
23143.7,0.03907
23564.5,0.04516
24000.8,0.04681
24453.7,0.043
24923.9,0.03204
25412.6,0.02782