File: csv_library/FTIR_PYX_09.csv
Database of Origin,University of Winnipeg Spectrophotometer Facility
Sample Description,"HOSERLab master pyroxenes, FTIR data"
Date Added,2016-12-14 03:34:49.7704

Data ID,FTIR_PYX_09
Sample ID,PYX108
Mineral Name,Orthopyroxene
Grain Size,<45 um
Viewing Geometry,"i=30, e=0"
Material Class,Inosilicate

Wavelength
2000.56,0.470521
2002.307,0.47017
2004.058,0.470758
2005.812,0.471124
2007.569,0.47135
2009.329,0.471897
2011.092,0.472521
2012.858,0.473073
2014.627,0.473353
2016.399,0.47392
2018.174,0.474774
2019.952,0.4752615
2021.733,0.475287
2023.518,0.474785
2025.305,0.475154
2027.096,0.476171
2028.89,0.476127
2030.686,0.476187
2032.486,0.477019
2034.289,0.477694
2036.096,0.478662
2037.905,0.478886
2039.718,0.479294
2041.533,0.4797
2043.352,0.479922
2045.174,0.480373
2047.0,0.480262
2048.828,0.480654
2050.66,0.481644
2052.495,0.482083
2054.333,0.482403
2056.175,0.483097
2058.019,0.483417
2059.867,0.48377
2061.718,0.484254
2063.573,0.484267
2065.431,0.484895
2067.292,0.485078
2069.156,0.484992
2071.024,0.485413
2072.895,0.48662
2074.769,0.486864
2076.647,0.4870861
2078.528,0.487047
2080.412,0.487871
2082.3,0.48881
2084.191,0.489095
2086.085,0.489566
2087.983,0.48997
2089.885,0.490925
2091.789,0.490916
2093.697,0.490916
2095.609,0.491292
2097.524,0.491388
2099.443,0.492099
2101.364,0.4929
2103.29,0.4936033
2105.219,0.493777
2107.151,0.493894
2109.087,0.494085
2111.026,0.494187
2112.969,0.494796
2114.915,0.495206
2116.865,0.495486
2118.819,0.496396
2120.776,0.496488
2122.736,0.496554
2124.7,0.496951
2126.668,0.496928
2128.64,0.497173
2130.614,0.497686
2132.593,0.498598
2134.575,0.498602
2136.561,0.49844
2138.55,0.499222
2140.544,0.499783
2142.54,0.5003303
2144.541,0.500548
2146.545,0.500622
2148.553,0.500982
2150.564,0.501088
2152.579,0.500868
2154.598,0.5011314
2156.621,0.501941
2158.647,0.502196
2160.678,0.502255
2162.712,0.50278
2164.749,0.502858
2166.791,0.503408
2168.836,0.503893
2170.885,0.50409
2172.938,0.504369
2174.995,0.504554
2177.056,0.505093
2179.12,0.505541
2181.189,0.504957
2183.261,0.505811
2185.337,0.506558
2187.417,0.506365
2189.501,0.507018
2191.589,0.507085
2193.68,0.50703
2195.776,0.507651
2197.876,0.508428
2199.979,0.5092853
2202.087,0.509158
2204.199,0.509581
2206.314,0.509811
2208.434,0.510325
2210.557,0.510609
2212.685,0.510227
2214.817,0.510619
2216.952,0.51095
2219.092,0.511011
2221.236,0.511211
2223.384,0.511077
2225.536,0.510847
2227.692,0.510847
2229.853,0.510917
2232.017,0.510602
2234.186,0.509868
2236.359,0.510148
2238.536,0.510442
2240.717,0.51036
2242.902,0.510308
2245.092,0.510041
2247.285,0.509947
2249.483,0.510149
2251.686,0.510677
2253.892,0.51094
2256.103,0.510766
2258.318,0.510517
2260.537,0.5101483
2262.761,0.509813
2264.989,0.509498
2267.221,0.508212
2269.458,0.507563
2271.699,0.507702
2273.944,0.507425
2276.194,0.506622
2278.448,0.506027
2280.707,0.5051332
2282.97,0.503351
2285.237,0.500381
2287.509,0.498179
2289.786,0.497564
2292.067,0.4982911
2294.352,0.499773
2296.642,0.499326
2298.936,0.498295
2301.235,0.497549
2303.539,0.495892
2305.847,0.493157
2308.159,0.490326
2310.476,0.487503
2312.798,0.487841
2315.124,0.492415
2317.455,0.49603
2319.791,0.497662
2322.131,0.4994917
2324.476,0.502126
2326.826,0.504709
2329.18,0.5063205
2331.54,0.507419
2333.903,0.508414
2336.272,0.509441
2338.645,0.509992
2341.023,0.510978
2343.406,0.511319
2345.794,0.511707
2348.186,0.511746
2350.583,0.511931
2352.986,0.511612
2355.393,0.512008
2357.804,0.51208
2360.221,0.512083
2362.643,0.512506
2365.069,0.511925
2367.501,0.511241
2369.937,0.51041
2372.379,0.509565
2374.825,0.50875
2377.276,0.508195
2379.733,0.508062
2382.194,0.507182
2384.661,0.507355
2387.132,0.507855
2389.609,0.507879
2392.09,0.508932
2394.577,0.510337
2397.069,0.5117201
2399.566,0.512955
2402.068,0.514148
2404.575,0.515022
2407.088,0.515814
2409.606,0.516032
2412.128,0.516391
2414.657,0.516319
2417.19,0.5167278
2419.729,0.517042
2422.272,0.516518
2424.822,0.516153
2427.376,0.516721
2429.936,0.517066
2432.501,0.51702
2435.072,0.5170951
2437.648,0.517124
2440.229,0.516881
2442.816,0.517074
2445.408,0.51771
2448.006,0.518524
2450.609,0.519239
2453.217,0.518792
2455.831,0.518389
2458.451,0.518515
2461.076,0.517923
2463.707,0.5180148
2466.343,0.518504
2468.985,0.518698
2471.632,0.51955
2474.285,0.520106
2476.944,0.520363
2479.608,0.520435
2482.278,0.521022
2484.954,0.521407
2487.636,0.521642
2490.323,0.521775
2493.016,0.521196
2495.715,0.521519
2498.419,0.521653
2501.129,0.522542
2503.845,0.523028
2506.567,0.52272
2509.295,0.522844
2512.029,0.523571
2514.769,0.524091
2517.514,0.524242
2520.266,0.52463
2523.023,0.525315
2525.787,0.525194
2528.556,0.52584
2531.331,0.526073
2534.113,0.526373
2536.9,0.526994
2539.694,0.528331
2542.494,0.527925
2545.3,0.528129
2548.112,0.5284155
2550.93,0.528943
2553.754,0.528462
2556.585,0.528623
2559.421,0.529035
2562.264,0.5295961
2565.113,0.529523
2567.969,0.530763
2570.831,0.530415
2573.699,0.530741
2576.573,0.530854
2579.454,0.531518
2582.342,0.53143
2585.235,0.53106
2588.135,0.532034
2591.042,0.53415
2593.955,0.538299
2596.874,0.532337
2599.8,0.533745
2602.733,0.535309
2605.672,0.535328
2608.618,0.53428
2611.57,0.53437
2614.529,0.536289
2617.495,0.536652
2620.467,0.536161
2623.446,0.536142
2626.431,0.537021
2629.424,0.537763
2632.423,0.536661
2635.429,0.536579
2638.442,0.537277
2641.461,0.537211
2644.488,0.537464
2647.521,0.536989
2650.561,0.538125
2653.609,0.537411
2656.663,0.5369863
2659.724,0.536962
2662.792,0.537527
2665.867,0.5382004
2668.949,0.536741
2672.038,0.531255
2675.135,0.529436
2678.238,0.5227934
2681.349,0.513406
2684.467,0.5043
2687.591,0.493045
2690.724,0.481928
2693.863,0.469874
2697.01,0.442384
2700.164,0.41506
2703.325,0.389175
2706.494,0.363598
2709.67,0.355379
2712.853,0.343985
2716.044,0.324183
2719.242,0.284209
2722.448,0.278064
2725.661,0.2990517
2728.882,0.302845
2732.111,0.303983
2735.347,0.315497
2738.59,0.320669
2741.841,0.321164
2745.1,0.3165541
2748.367,0.314751
2751.641,0.314153
2754.923,0.312199
2758.213,0.307963
2761.51,0.306873
2764.816,0.304186
2768.129,0.302847
2771.45,0.3014232
2774.779,0.299642
2778.116,0.2989213
2781.461,0.297155
2784.814,0.295829
2788.175,0.293757
2791.544,0.293214
2794.922,0.292048
2798.307,0.291142
2801.7,0.289768
2805.102,0.288309
2808.512,0.288559
2811.93,0.288162
2815.356,0.287837
2818.791,0.287945
2822.233,0.287785
2825.685,0.288407
2829.144,0.288118
2832.612,0.287157
2836.089,0.285576
2839.574,0.284821
2843.067,0.28415
2846.569,0.284123
2850.08,0.283864
2853.599,0.283991
2857.127,0.283571
2860.664,0.28393
2864.209,0.2838263
2867.763,0.282361
2871.325,0.280827
2874.897,0.2798134
2878.477,0.278953
2882.066,0.2784
2885.664,0.277179
2889.271,0.276674
2892.887,0.275683
2896.512,0.274066
2900.146,0.273054
2903.789,0.272393
2907.441,0.272177
2911.103,0.271642
2914.773,0.271714
2918.453,0.271909
2922.142,0.270505
2925.84,0.2700012
2929.547,0.269301
2933.264,0.269187
2936.99,0.270323
2940.726,0.270268
2944.471,0.270737
2948.225,0.272432
2951.989,0.2718882
2955.763,0.2724
2959.546,0.27183
2963.339,0.272125
2967.141,0.272805
2970.953,0.273214
2974.775,0.275452
2978.607,0.276019
2982.448,0.275838
2986.3,0.276625
2990.161,0.277612
2994.032,0.278196
2997.913,0.278973
3001.804,0.280672
3005.705,0.281137
3009.616,0.281272
3013.538,0.2823045
3017.469,0.282832
3021.411,0.28296
3025.363,0.28384
3029.325,0.286085
3033.298,0.288706
3037.281,0.287294
3041.274,0.288101
3045.278,0.289678
3049.292,0.289345
3053.317,0.289643
3057.352,0.290563
3061.398,0.291983
3065.455,0.293698
3069.522,0.293437
3073.6,0.293935
3077.689,0.295311
3081.788,0.296198
3085.899,0.297303
3090.02,0.298506
3094.153,0.298817
3098.296,0.299873
3102.45,0.3014
3106.616,0.300997
3110.792,0.301929
3114.98,0.303318
3119.179,0.304334
3123.389,0.3056131
3127.611,0.307029
3131.844,0.308633
3136.088,0.310204
3140.344,0.3117968
3144.611,0.313627
3148.89,0.315423
3153.18,0.317203
3157.482,0.318454
3161.796,0.320004
3166.121,0.322056
3170.458,0.323903
3174.807,0.325489
3179.168,0.328376
3183.541,0.330131
3187.926,0.330355
3192.323,0.332843
3196.731,0.3349845
3201.152,0.335511
3205.585,0.337363
3210.031,0.339188
3214.488,0.343027
3218.958,0.344979
3223.441,0.344452
3227.936,0.346054
3232.443,0.347126
3236.963,0.348943
3241.495,0.35019
3246.04,0.35248
3250.598,0.354298
3255.168,0.357162
3259.751,0.3586
3264.347,0.3582526
3268.956,0.360241
3273.578,0.361657
3278.213,0.362735
3282.861,0.364573
3287.522,0.366502
3292.196,0.367876
3296.884,0.370006
3301.585,0.370173
3306.299,0.371526
3311.026,0.3724278
3315.767,0.374262
3320.522,0.376003
3325.29,0.378951
3330.072,0.381786
3334.867,0.381332
3339.676,0.381365
3344.499,0.382156
3349.336,0.382911
3354.187,0.382317
3359.052,0.381255
3363.931,0.3815569
3368.824,0.380158
3373.731,0.378065
3378.652,0.3772835
3383.588,0.378537
3388.538,0.381059
3393.502,0.382884
3398.481,0.383808
3403.475,0.382991
3408.483,0.381541
3413.506,0.37939
3418.543,0.380047
3423.596,0.384345
3428.663,0.389214
3433.745,0.394361
3438.842,0.399936
3443.954,0.4042051
3449.082,0.405409
3454.224,0.4074
3459.382,0.409441
3464.556,0.411523
3469.744,0.412156
3474.948,0.411969
3480.168,0.412077
3485.403,0.412598
3490.654,0.414867
3495.921,0.414712
3501.204,0.4140638
3506.502,0.416554
3511.817,0.421458
3517.147,0.426118
3522.494,0.43031
3527.857,0.4333362
3533.236,0.437224
3538.631,0.439311
3544.043,0.4400369
3549.471,0.44183
3554.916,0.443663
3560.378,0.444984
3565.856,0.446714
3571.351,0.448308
3576.863,0.4492
3582.392,0.450503
3587.938,0.452007
3593.501,0.4530214
3599.082,0.45437
3604.679,0.454478
3610.294,0.4556993
3615.926,0.457446
3621.576,0.458072
3627.244,0.458781
3632.929,0.460203
3638.632,0.461285
3644.353,0.462527
3650.091,0.4640614
3655.848,0.464684
3661.623,0.465157
3667.416,0.466274
3673.227,0.4674611
3679.057,0.469013
3684.905,0.470364
3690.771,0.470606
3696.656,0.471543
3702.56,0.472703
3708.483,0.473729
3714.425,0.474421
3720.385,0.475343
3726.365,0.4759592
3732.364,0.477091
3738.382,0.478287
3744.419,0.479588
3750.476,0.480705
3756.553,0.481562
3762.649,0.482491
3768.764,0.483673
3774.9,0.484296
3781.056,0.48487
3787.231,0.485831
3793.427,0.486689
3799.643,0.487354
3805.879,0.48794
3812.135,0.488882
3818.412,0.490302
3824.71,0.491201
3831.029,0.4918975
3837.368,0.493074
3843.728,0.493978
3850.109,0.494714
3856.512,0.495853
3862.935,0.497001
3869.38,0.497926
3875.846,0.498956
3882.334,0.499927
3888.844,0.501056
3895.375,0.5021001
3901.929,0.503144
3908.504,0.503384
3915.101,0.5038921
3921.721,0.504597
3928.363,0.505695
3935.027,0.50667
3941.714,0.507693
3948.423,0.508906
3955.156,0.5095971
3961.911,0.510645
3968.689,0.511739
3975.491,0.513219
3982.315,0.514519
3989.163,0.515519
3996.035,0.516245
4002.93,0.517015
4009.849,0.51781
4016.791,0.518207
4023.758,0.519015
4030.749,0.519864
4037.764,0.520712
4044.804,0.5213215
4051.867,0.522544
4058.956,0.523696
4066.069,0.524437
4073.207,0.525356
4080.371,0.526479
4087.559,0.528106
4094.773,0.529423
4102.012,0.530457
4109.276,0.531531
4116.566,0.533131
4123.882,0.535227
4131.224,0.536759
4138.592,0.538111
4145.987,0.540082
4153.407,0.541801
4160.854,0.542957
4168.328,0.544108
4175.829,0.545476
4183.356,0.547037
4190.911,0.549229
4198.493,0.55367
4206.102,0.5635347
4213.739,0.577949
4221.404,0.592359
4229.096,0.604024
4236.816,0.611576
4244.565,0.610632
4252.341,0.596892
4260.146,0.591086
4267.98,0.606535
4275.843,0.61108
4283.734,0.612351
4291.655,0.614278
4299.604,0.612871
4307.583,0.612232
4315.592,0.609167
4323.631,0.606876
4331.699,0.605037
4339.797,0.603053
4347.926,0.602701
4356.085,0.604139
4364.275,0.6052639
4372.495,0.607806
4380.746,0.6103999
4389.029,0.6136282
4397.342,0.6172483
4405.687,0.6202732
4414.064,0.623528
4422.472,0.626888
4430.913,0.6296016
4439.386,0.6326018
4447.891,0.634539
4456.428,0.636696
4464.998,0.639262
4473.602,0.642073
4482.238,0.644259
4490.908,0.6455855
4499.611,0.647741
4508.347,0.6499573
4517.118,0.651286
4525.923,0.65255
4534.762,0.6537796
4543.635,0.654779
4552.543,0.655767
4561.487,0.657113
4570.465,0.657812
4579.478,0.658677
4588.527,0.660195
4597.612,0.660551
4606.732,0.662515
4615.889,0.6622
4625.082,0.662915
4634.312,0.663405
4643.578,0.664236
4652.882,0.665436
4662.223,0.667614
4671.601,0.6708954
4681.017,0.674346
4690.471,0.674695
4699.962,0.6774366
4709.493,0.680967
4719.062,0.682709
4728.669,0.684931
4738.316,0.686734
4748.002,0.687841
4757.728,0.690179
4767.494,0.691929
4777.299,0.694048
4787.145,0.695832
4797.032,0.697274
4806.959,0.6990762
4816.927,0.702413
4826.937,0.7036
4836.988,0.705089
4847.081,0.708294
4857.216,0.711605
4867.393,0.714002
4877.613,0.715938
4887.876,0.718787
4898.182,0.723198
4908.532,0.725767
4918.925,0.727206
4929.362,0.730377
4939.844,0.733264
4950.37,0.736213
4960.941,0.73841
4971.556,0.739523
4982.218,0.741453
4992.925,0.742485
5003.678,0.7443521
5014.477,0.747375
5025.323,0.748937
5036.216,0.748415
5047.156,0.749412
5058.143,0.750105
5069.179,0.75091
5080.262,0.753852
5091.394,0.754422
5102.574,0.755
5113.804,0.75658
5125.083,0.757784
5136.412,0.761365
5147.791,0.76702
5159.22,0.766666
5170.7,0.769648
5182.231,0.773632
5193.814,0.779564
5205.448,0.786093
5217.134,0.788566
5228.873,0.788621
5240.665,0.7928371
5252.51,0.794154
5264.408,0.797189
5276.36,0.801723
5288.367,0.80646
5300.428,0.807106
5312.544,0.8077784
5324.715,0.810156
5336.942,0.813861
5349.226,0.823043
5361.566,0.819272
5373.962,0.818965
5386.417,0.820316
5398.928,0.822129
5411.498,0.8291263
5424.127,0.835488
5436.814,0.830483
5449.561,0.8342566
5462.368,0.846621
5475.234,0.853845
5488.162,0.8582069
5501.15,0.862852
5514.2,0.890064
5527.312,0.924635
5540.486,0.964032
5553.723,0.909621
5567.023,0.7165738
5580.387,0.665684
5593.815,0.72671
5607.307,0.7486961
5620.865,0.768369
5634.489,0.782644
5648.178,0.78807
5661.934,0.791737
5675.757,0.8027373
5689.647,0.806132
5703.606,0.810374
5717.633,0.816878
5731.729,0.819542
5745.894,0.825423
5760.13,0.834088
5774.436,0.836455
5788.813,0.832214
5803.262,0.837978
5817.782,0.851502
5832.376,0.849426
5847.043,0.847133
5861.783,0.856521
5876.598,0.866068
5891.488,0.866447
5906.454,0.858646
5921.495,0.863005
5936.613,0.872338
5951.809,0.867194
5967.082,0.869553
5982.433,0.870445
5997.864,0.868459
6013.374,0.869948
6028.964,0.871291
6044.636,0.8820849
6060.389,0.879765
6076.224,0.879297
6092.141,0.878024
6108.143,0.886691
6124.228,0.881899
6140.398,0.884105
6156.654,0.888136
6172.996,0.891142
6189.424,0.892471
6205.94,0.893096
6222.544,0.895151
6239.237,0.897132
6256.02,0.899012
6272.893,0.902736
6289.858,0.902373
6306.914,0.904384
6324.062,0.909219
6341.304,0.91357
6358.64,0.915463
6376.071,0.915943
6393.598,0.917247
6411.221,0.926503
6428.941,0.9221528
6446.759,0.9217018
6464.676,0.924681
6482.693,0.930571
6500.81,0.927989
6519.029,0.929933
6537.35,0.930347
6555.774,0.933382
6574.302,0.936001
6592.934,0.936517
6611.673,0.938899
6630.518,0.942492
6649.47,0.937143
6668.532,0.940118
6687.702,0.940626
6706.983,0.944555
6726.375,0.942714
6745.879,0.9428458
6765.497,0.946318
6785.229,0.9474402
6805.076,0.946124
6825.039,0.948058
6845.12,0.95078
6865.319,0.951059
6885.637,0.950126
6906.076,0.950965
6926.636,0.950692
6947.319,0.953383
6968.125,0.953868
6989.057,0.955627
7010.114,0.957026
7031.298,0.959063
7052.611,0.959825
7074.052,0.960036
7095.625,0.961295
7117.329,0.963161
7139.166,0.964653
7161.137,0.965301
7183.244,0.965796
7205.487,0.967396
7227.869,0.968089
7250.39,0.969662
7273.051,0.971027
7295.854,0.972023
7318.8,0.973483
7341.891,0.97434
7365.128,0.975131
7388.512,0.976685
7412.045,0.978174
7435.728,0.979219
7459.562,0.980722
7483.55,0.981445
7507.692,0.981975
7531.99,0.982732
7556.446,0.98372
7581.061,0.984538
7605.837,0.984871
7630.774,0.985289
7655.876,0.9856161
7681.143,0.986553
7706.577,0.987196
7732.18,0.987773
7757.953,0.988735
7783.899,0.989722
7810.018,0.990849
7836.313,0.992317
7862.786,0.993473
7889.437,0.994787
7916.27,0.995942
7943.285,0.996791
7970.485,0.998098
7997.872,0.999374
8025.448,0.0100044
8053.214,0.0100152
8081.173,0.0100231
8109.326,0.0100296
8137.676,0.01004
8166.224,0.0100484
8194.973,0.0100599
8223.925,0.0100691
8253.082,0.0100772
8282.446,0.0100904
8312.02,0.0101016
8341.805,0.0101126
8371.804,0.0101209
8402.02,0.0101302
8432.454,0.010137
8463.109,0.0101445
8493.988,0.0101522
8525.092,0.0101555
8556.425,0.0101621
8587.989,0.0101679
8619.786,0.0101722
8651.819,0.0101767
8684.091,0.0101841
8716.604,0.010195
8749.361,0.0102024
8782.365,0.0102079
8815.619,0.0102204
8849.125,0.0102339
8882.887,0.0102434
8916.907,0.0102525
8951.188,0.0102605
8985.733,0.0102648
9020.546,0.0102646
9055.629,0.0102621
9090.986,0.0102623
9126.62,0.0102576
9162.534,0.010246
9198.731,0.0102374
9235.215,0.0102328
9271.99,0.0102317
9309.058,0.01023
9346.423,0.0102302
9384.089,0.0102315
9422.06,0.010237
9460.339,0.0102411
9498.929,0.0102489
9537.836,0.0102534
9577.062,0.0102589
9616.612,0.0102611
9656.49,0.0102649
9696.699,0.0102716
9737.244,0.0102717
9778.129,0.0102695
9819.359,0.0102665
9860.938,0.0102672
9902.869,0.0102695
9945.159,0.0102706
9987.811,0.0102702
10030.83,0.0102735
10074.221,0.0102752
10117.988,0.0102794
10162.137,0.010286
10206.672,0.0102926
10251.6,0.010301
10296.924,0.0103055
10342.65,0.0103095
10388.784,0.0103137
10435.331,0.0103161
10482.296,0.0103146
10529.686,0.0103141
10577.505,0.0103167
10625.761,0.01032
10674.458,0.0103191
10723.604,0.0103176
10773.203,0.0103184
10823.264,0.0103198
10873.791,0.0103187
10924.791,0.0103213
10976.272,0.0103251
11028.24,0.0103288
11080.702,0.0103321
11133.665,0.0103311
11187.137,0.0103299
11241.124,0.0103249
11295.634,0.0103196
11350.675,0.0103163
11406.254,0.0103089
11462.38,0.0103025
11519.06,0.0102953
11576.304,0.0102902
11634.118,0.0102854
11692.513,0.0102816
11751.496,0.0102821
11811.077,0.0102806
11871.265,0.0102829
11932.068,0.0102834
11993.497,0.0102828
12055.562,0.0102879
12118.271,0.0102889
12181.636,0.0102853
12245.667,0.010282
12310.373,0.0102777
12375.767,0.0102731
12441.859,0.0102662
12508.659,0.0102697
12576.18,0.010267
12644.434,0.0102611
12713.432,0.0102628
12783.187,0.0102687
12853.71,0.0102722
12925.016,0.0102751
12997.116,0.0102824
13070.025,0.0102909
13143.756,0.0102942
13218.322,0.0102992
13293.74,0.010304
13370.021,0.0103068
13447.183,0.0103073
13525.24,0.0103083
13604.208,0.0103014
13684.103,0.0102941
13764.941,0.0102801
13846.739,0.0102725
13929.515,0.0102723
14013.285,0.0102643
14098.068,0.0102601
14183.883,0.0102541
14270.749,0.0102466
14358.684,0.0102495
14447.709,0.010242
14537.844,0.0102311
14629.109,0.01022267
14721.528,0.0102185
14815.121,0.0102112
14909.91,0.0101634
15005.92,0.010148
15103.173,0.0101341
15201.695,0.010089
15301.509,0.999794
15402.642,0.986552
15505.12,0.969128
15608.97,0.949408
15714.22,0.910519
15820.897,0.859447
15929.033,0.816244
15965.407,0.795066