File: csv_library/FTIR_CARB_39_9.csv
Database of Origin,University of Winnipeg Spectrophotometer Facility
Sample Description,Carbonates and Oxolates -  D&P Spectra Reflectance spectra
Other Information,"Designs and Prototypes 102F spectra/Relative to infragold 1"" disk/Reflectance only"
Date Added,2018-08-06 21:11:30.497

Data ID,FTIR_CARB_39_9
Sample ID,CRB215
Mineral Name,hydromagnesite
Locality,Atlin/ British Columbia/ Canada
Grain Size,<45 um
Viewing Geometry,i=35/ e=0
Resolution,~3 cm-1
Formula,Mg5(CO3)4(OH)2*4(H2O)
Composition,XRD shows almost all hydromagnesite/ with a bit of magnesite.

Wavelength
2.001142,0.599332
2.003474,0.598796
2.005812,0.599659
2.008155,0.600298
2.010504,0.60231
2.012858,0.603016
2.015217,0.60276
2.017582,0.6049
2.019952,0.605729
2.022328,0.607547
2.024709,0.608568
2.027096,0.60929
2.029488,0.6117517
2.031886,0.61241
2.034289,0.613563
2.036698,0.6158842
2.039113,0.61678
2.041533,0.618482
2.043959,0.618852
2.046391,0.6207174
2.048828,0.621509
2.051271,0.623541
2.05372,0.624102
2.056175,0.623993
2.058635,0.62434
2.061101,0.624676
2.063573,0.626376
2.066051,0.627441
2.068534,0.626912
2.071024,0.627458
2.073519,0.628366
2.07602,0.628169
2.078528,0.629288
2.081041,0.630185
2.08356,0.629758
2.086085,0.629668
2.088617,0.630936
2.091154,0.630356
2.093697,0.631395
2.096247,0.630242
2.098803,0.632642
2.101364,0.634323
2.103932,0.634861
2.106506,0.636145
2.109087,0.637314
2.111673,0.640279
2.114266,0.638799
2.116865,0.640478
2.119471,0.640948
2.122082,0.641751
2.1247,0.641455
2.127325,0.64164
2.129956,0.641403
2.132593,0.642821
2.135237,0.64282
2.137887,0.643604
2.140544,0.643806
2.143207,0.644948
2.145876,0.644076
2.148553,0.644704
2.151235,0.644269
2.153925,0.644384
2.156621,0.644414
2.159324,0.6450836
2.162033,0.643903
2.164749,0.643224
2.167472,0.645274
2.170202,0.643565
2.172938,0.643131
2.175682,0.643686
2.178432,0.643835
2.181189,0.64342
2.183952,0.6437729
2.186723,0.64216
2.189501,0.643242
2.192285,0.644006
2.195077,0.642477
2.197876,0.641379
2.200682,0.639321
2.203494,0.631219
2.206314,0.636982
2.209141,0.641665
2.211975,0.641602
2.214817,0.641276
2.217665,0.639489
2.220521,0.6389491
2.223384,0.639305
2.226254,0.638445
2.229132,0.638699
2.232017,0.637355
2.23491,0.635255
2.237809,0.633584
2.240717,0.629558
2.243631,0.627502
2.246554,0.622457
2.249483,0.617852
2.252421,0.614459
2.255365,0.611298
2.258318,0.611556
2.261278,0.610758
2.264246,0.609182
2.267221,0.60831
2.270204,0.605492
2.273195,0.603815
2.276194,0.600877
2.279201,0.599741
2.282215,0.6011504
2.285237,0.602174
2.288268,0.600565
2.291306,0.5992788
2.294352,0.599544
2.297406,0.598318
2.300468,0.596506
2.303539,0.593583
2.306617,0.589328
2.309703,0.584072
2.312798,0.578029
2.315901,0.573213
2.319012,0.568455
2.322131,0.567087
2.325259,0.567028
2.328395,0.563547
2.33154,0.562041
2.334692,0.556564
2.337854,0.552364
2.341023,0.551057
2.344201,0.548794
2.347388,0.5473834
2.350583,0.545661
2.353787,0.543718
2.357,0.542237
2.360221,0.542169
2.363451,0.542878
2.36669,0.542671
2.369937,0.543336
2.373194,0.543549
2.376459,0.5431227
2.379733,0.541948
2.383016,0.541128
2.386308,0.540054
2.389609,0.540125
2.392919,0.53817
2.396238,0.5371619
2.399566,0.535473
2.402903,0.533572
2.40625,0.530283
2.409606,0.526557
2.412971,0.524235
2.416345,0.519919
2.419729,0.5166714
2.423122,0.514203
2.426524,0.513641
2.429936,0.513103
2.433358,0.514039
2.436789,0.515139
2.440229,0.516352
2.443679,0.517455
2.447139,0.519077
2.450609,0.521406
2.454088,0.522979
2.457577,0.523509
2.461076,0.522821
2.464585,0.520572
2.468104,0.517348
2.471632,0.515672
2.475171,0.511749
2.47872,0.507872
2.482278,0.504248
2.485847,0.500704
2.489427,0.499489
2.493016,0.498128
2.496615,0.497111
2.500225,0.496648
2.503845,0.494809
2.507476,0.492483
2.511117,0.490142
2.514769,0.4868911
2.518431,0.483715
2.522103,0.482541
2.525787,0.48171
2.52948,0.481094
2.533185,0.4837499
2.5369,0.486917
2.540627,0.490128
2.544364,0.492498
2.548112,0.494377
2.55187,0.496371
2.55564,0.495355
2.559421,0.49796
2.563213,0.501655
2.567016,0.497648
2.570831,0.4997984
2.574656,0.502738
2.578493,0.50116
2.582342,0.503725
2.586201,0.502362
2.590072,0.501789
2.593955,0.511616
2.597849,0.501109
2.601755,0.502203
2.605672,0.506904
2.609601,0.5006891
2.613542,0.497344
2.617495,0.500018
2.621459,0.496418
2.625435,0.491152
2.629424,0.490357
2.633424,0.486647
2.637437,0.48235
2.641461,0.481735
2.645498,0.480135
2.649547,0.473682
2.653609,0.47428
2.657682,0.468622
2.661768,0.467633
2.665867,0.47548
2.669978,0.4676
2.674102,0.453554
2.678238,0.455585
2.682387,0.442145
2.686549,0.437715
2.690724,0.427832
2.694911,0.428018
2.699112,0.4095989
2.703325,0.400999
2.707552,0.392405
2.711791,0.3917699
2.716044,0.365533
2.72031,0.370886
2.724589,0.350029
2.728882,0.313837
2.733188,0.271183
2.737508,0.164663
2.741841,0.06736743
2.746188,0.106946
2.750549,0.186778
2.754923,0.223811
2.759311,0.22102
2.763713,0.211484
2.768129,0.196661
2.772559,0.1831167
2.777003,0.168984
2.781461,0.157214
2.785934,0.146738
2.79042,0.136443
2.794922,0.126979
2.799437,0.118401
2.803967,0.110662
2.808512,0.101167
2.813071,0.09107498
2.817645,0.07989568
2.822233,0.0681936
2.826837,0.05534086
2.831455,0.04294573
2.836089,0.03310235
2.840737,0.02757372
2.845401,0.02536074
2.85008,0.02649038
2.854774,0.0281105
2.859484,0.03054074
2.864209,0.03170463
2.868949,0.03176661
2.873705,0.02956024
2.878477,0.0272857
2.883265,0.02509025
2.888068,0.02449172
2.892887,0.02344766
2.897723,0.02234769
2.902574,0.02310136
2.907441,0.02352812
2.912325,0.02429178
2.917225,0.02719509
2.922142,0.02778574
2.927075,0.02777661
2.932024,0.02871656
2.93699,0.03008
2.941973,0.03124117
2.946973,0.03402075
2.951989,0.03298393
2.957023,0.03749426
2.962073,0.03692186
2.967141,0.03921109
2.972226,0.04110635
2.977328,0.04679411
2.982448,0.04633636
2.987586,0.04797502
2.99274,0.05148392
2.997913,0.05108134
3.003103,0.05370241
3.008312,0.05286974
3.013538,0.05479329
3.018782,0.05510176
3.024044,0.05572247
3.029325,0.05678407
3.034624,0.06078178
3.039942,0.05793798
3.045278,0.06072024
3.050632,0.05821921
3.056006,0.05876405
3.061398,0.0588897
3.066809,0.06190185
3.072239,0.05927364
3.077689,0.05928192
3.083157,0.05878664
3.088645,0.06082426
3.094153,0.05847088
3.099679,0.0597264
3.105226,0.05766727
3.110792,0.05697033
3.116378,0.05712861
3.121985,0.05671252
3.127611,0.05613441
3.133257,0.05533206
3.138924,0.05536549
3.144611,0.05546461
3.150319,0.05536005
3.156047,0.05555205
3.161796,0.05571678
3.167566,0.05590937
3.173356,0.05556248
3.179168,0.05618392
3.185001,0.05548447
3.190856,0.05493881
3.196731,0.05639063
3.202629,0.05588907
3.208548,0.05495709
3.214488,0.05902288
3.220451,0.05827114
3.226436,0.05772628
3.232443,0.05520792
3.238472,0.05535971
3.244523,0.05688134
3.250598,0.05662439
3.256694,0.05875928
3.262814,0.05378845
3.268956,0.05528888
3.275122,0.05393813
3.28131,0.05407579
3.287522,0.0553801
3.293757,0.05483893
3.300016,0.0551089
3.306299,0.05527484
3.312605,0.05344064
3.318936,0.05403133
3.32529,0.05519574
3.331669,0.05752496
3.338072,0.05322635
3.344499,0.05390346
3.350952,0.05473073
3.357429,0.05221971
3.363931,0.05443767
3.370458,0.05370084
3.37701,0.05303088
3.383588,0.05364884
3.390191,0.05430362
3.39682,0.05578
3.403475,0.05671728
3.410156,0.05712605
3.416862,0.05709557
3.423596,0.05992305
3.430355,0.05901695
3.437141,0.06144057
3.443954,0.06763965
3.450794,0.06484174
3.457661,0.06665376
3.464556,0.06976589
3.471477,0.07023323
3.478426,0.07217581
3.485403,0.07408204
3.492408,0.08019417
3.499441,0.07842645
3.506502,0.08070154
3.513592,0.08329103
3.52071,0.08611887
3.527857,0.08814742
3.535032,0.09460794
3.542237,0.09379284
3.549471,0.09581845
3.556735,0.09865816
3.564028,0.100476
3.571351,0.104272
3.578704,0.105594
3.586088,0.109164
3.593501,0.110268
3.600946,0.113303
3.608421,0.1147882
3.615926,0.118193
3.623463,0.119334
3.631032,0.121638
3.638632,0.123631
3.646263,0.126359
3.653927,0.129923
3.661623,0.130846
3.669351,0.132884
3.677111,0.135499
3.684905,0.139364
3.692731,0.140816
3.70059,0.142624
3.708483,0.145375
3.716409,0.148073
3.72437,0.149985
3.732364,0.152176
3.740392,0.153536
3.748455,0.155347
3.756553,0.156155
3.764685,0.156788
3.772853,0.157834
3.781056,0.159561
3.789294,0.1608
3.797568,0.162266
3.805879,0.165576
3.814225,0.167936
3.822609,0.173824
3.831029,0.1779
3.839486,0.180692
3.84798,0.181149
3.856512,0.181792
3.865081,0.182951
3.873689,0.185926
3.882334,0.188597
3.891019,0.191126
3.899742,0.194567
3.908504,0.198698
3.917305,0.201524
3.926146,0.204244
3.935027,0.20544
3.943948,0.209023
3.952909,0.216927
3.961911,0.228566
3.970954,0.239612
3.980038,0.249335
3.989163,0.257008
3.99833,0.263576
4.00754,0.269357
4.016791,0.274005
4.026086,0.278394
4.035423,0.283046
4.044804,0.287854
4.054228,0.292419
4.063695,0.297033
4.073207,0.301678
4.082764,0.305971
4.092365,0.310971
4.102012,0.314814
4.111703,0.320378
4.121441,0.325333
4.131224,0.329915
4.141054,0.335067
4.150931,0.340741
4.160854,0.346781
4.170826,0.35184
4.180844,0.357755
4.190911,0.365352
4.201026,0.380736
4.21119,0.410582
4.221404,0.438462
4.231666,0.459698
4.241979,0.471204
4.252341,0.461972
4.262754,0.452429
4.273219,0.470848
4.283734,0.472922
4.294301,0.4798127
4.30492,0.481162
4.315592,0.478159
4.326317,0.476476
4.337095,0.473408
4.347926,0.473018
4.358811,0.474948
4.369751,0.479272
4.380746,0.483656
4.391796,0.491431
4.402902,0.498898
4.414064,0.505835
4.425282,0.512599
4.436558,0.518779
4.447891,0.52579
4.459281,0.530966
4.47073,0.536217
4.482238,0.541455
4.493805,0.546261
4.505431,0.551301
4.517118,0.556724
4.528865,0.562353
4.540674,0.566713
4.552543,0.571711
4.564475,0.577166
4.57647,0.582768
4.588527,0.5871462
4.600648,0.592624
4.612833,0.59778
4.625082,0.602656
4.637397,0.608332
4.649777,0.613755
4.662223,0.618995
4.674735,0.6251577
4.687315,0.630048
4.699962,0.636128
4.712678,0.641204
4.725463,0.6460445
4.738316,0.65198
4.75124,0.657286
4.764234,0.661934
4.777299,0.6674
4.790436,0.672401
4.803645,0.678058
4.816927,0.680296
4.830283,0.685269
4.843712,0.690967
4.857216,0.694216
4.870795,0.698478
4.884451,0.702585
4.898182,0.707699
4.911991,0.710512
4.925878,0.71445
4.939844,0.718859
4.953888,0.723712
4.968013,0.725324
4.982218,0.729308
4.996504,0.73284
5.010872,0.735725
5.025323,0.7428105
5.039857,0.743835
5.054475,0.748023
5.069179,0.751554
5.083967,0.758716
5.098842,0.759808
5.113804,0.763845
5.128854,0.767198
5.143992,0.775081
5.15922,0.772379
5.174538,0.776726
5.189947,0.779643
5.205448,0.7869578
5.221041,0.788947
5.236728,0.794907
5.25251,0.795337
5.268386,0.799119
5.284358,0.802805
5.300428,0.805361
5.316595,0.808077
5.33286,0.810653
5.349226,0.8282329
5.365692,0.816618
5.382259,0.821309
5.398928,0.825046
5.415701,0.838118
5.432579,0.830882
5.449561,0.836553
5.46665,0.850922
5.483846,0.848573
5.50115,0.845115
5.518564,0.844541
5.536087,0.831313
5.553723,0.825691
5.57147,0.775544
5.589332,0.818719
5.607307,0.868863
5.625399,0.881933
5.643607,0.891653
5.661934,0.8822
5.680379,0.890146
5.698945,0.889377
5.717633,0.901041
5.736443,0.8976
5.755377,0.893026
5.774436,0.902019
5.793621,0.899008
5.812934,0.909842
5.832376,0.910518
5.851948,0.909733
5.871652,0.9201749
5.891488,0.92679
5.911459,0.913593
5.931565,0.934087
5.951809,0.919536
5.97219,0.929158
5.992711,0.934965
6.013374,0.939182
6.034179,0.935913
6.055129,0.942699
6.076224,0.951385
6.097466,0.945172
6.118857,0.953098
6.140398,0.955274
6.162091,0.956936
6.183938,0.967585
6.20594,0.9592394
6.228099,0.959661
6.250416,0.960164
6.272893,0.962304
6.295533,0.964087
6.318336,0.966114
6.341304,0.980482
6.36444,0.977313
6.387745,0.973222
6.411221,0.998847
6.434869,0.981935
6.458693,0.982044
6.482693,0.997758
6.506872,0.985265
6.531231,0.985821
6.555774,0.993123
6.580501,0.996478
6.605415,0.993301
6.630518,0.0100795
6.655812,0.995512
6.6813,0.998165
6.706983,0.0100525
6.732864,0.999301
6.758945,0.0100187
6.785229,0.0100926
6.811718,0.0100543
6.838413,0.0100557
6.865319,0.0101178
6.892437,0.0101125
6.919769,0.0101023
6.947319,0.0101459
6.975089,0.0101371
7.003081,0.0101441
7.031298,0.0101713
7.059743,0.010157
7.088419,0.0101672
7.117329,0.0101881
7.146475,0.0102197
7.17586,0.0102161
7.205487,0.0102363
7.23536,0.0102368
7.265481,0.0102554
7.295854,0.0102505
7.326481,0.0102731
7.357366,0.0102601
7.388512,0.010273
7.419922,0.0102794
7.451601,0.0103023
7.48355,0.0102924
7.515774,0.0103059
7.548277,0.0103176
7.581061,0.010333
7.614131,0.0103353
7.647491,0.0103454
7.681143,0.0103488
7.715093,0.0103591
7.749343,0.0103711
7.783899,0.0103747
7.818764,0.0103795
7.853942,0.010389
7.889437,0.0104004
7.925254,0.0104072
7.961398,0.0104174
7.997872,0.0104323
8.034682,0.0104414
8.071832,0.0104549
8.109326,0.0104669
8.147169,0.0104766
8.185368,0.0104862
8.223925,0.0104967
8.262847,0.0105038
8.302139,0.0105143
8.341805,0.0105217
8.381852,0.0105304
8.422285,0.0105356
8.463109,0.0105526
8.504331,0.0105672
8.545955,0.0105756
8.587989,0.0105874
8.630437,0.0105963
8.673307,0.0106064
8.716604,0.0106152
8.760335,0.0106155
8.804507,0.0106281
8.849125,0.0106368
8.894198,0.0106532
8.939732,0.0106595
8.985733,0.01066948
9.03221,0.0106639
9.07917,0.0106685
9.12662,0.0106731
9.174568,0.0106709
9.223022,0.010673
9.27199,0.0106713
9.32148,0.0106716
9.3715,0.0106767
9.42206,0.0106754
9.473167,0.0106812
9.524832,0.0106765
9.577062,0.0106789
9.629868,0.0106792
9.683259,0.010683
9.737244,0.0106869
9.791834,0.0106881
9.847039,0.0106916
9.902869,0.0106975
9.959336,0.0106963
10.0164,0.010698
10.0742,0.0106935
10.1327,0.010691
10.1918,0.0106889
10.2516,0.0106876
10.3121,0.0106865
10.37336,0.0106862
10.4353,0.0106852
10.498,0.0106873
10.5615,0.0106851
10.6258,0.0106873
10.69079,0.0106903
10.7566,0.0106936
10.8233,0.010698
10.8907,0.010692
10.9591,0.0106956
11.02824,0.0106983
11.0983,0.0107031
11.1693,0.0107029
11.2411,0.0106962
11.3139,0.0106963
11.3877,0.010688
11.46238,0.0106925
11.5381,0.01068577
11.6148,0.0106816
11.6925,0.0106745
11.77129,0.0106637
11.8511,0.0106577
11.9321,0.0106483
12.0141,0.0106425
12.0973,0.0106403
12.1816,0.0106469
12.26716,0.010643
12.3539,0.0106393
12.4419,0.0106403
12.5311,0.0106402
12.6216,0.0106426
12.7134,0.0106407
12.8066,0.0106364
12.9012,0.0106344
12.9971,0.0106269
13.09451,0.0106211
13.1934,0.0106148
13.29374,0.0106027
13.3956,0.0106016
13.4991,0.01059
13.6042,0.0105897
13.7109,0.010585
13.8194,0.0105735
13.9295,0.0105731
14.0414,0.0105664
14.1552,0.0105551
14.2707,0.0105249
14.3882,0.0105023
14.5077,0.0104704
14.6291,0.0104208
14.7526,0.010387
14.8782,0.010356
15.00592,0.0102527
15.1359,0.0101587
15.2681,0.998909
15.4026,0.978814
15.5396,0.940832
15.679,0.888248
15.8209,0.80195
15.9654,0.7383172