File: csv_library/FTIR_PLG_04.csv
Database of Origin,University of Winnipeg Spectrophotometer Facility
Sample Description,IR Reflectance spectra of plagioclase with a Bruker Vertex 70 FTIR. See Master Plagioclase in PSF database for additional info.
Date Added,2016-11-22 04:00:06.309687

Data ID,FTIR_PLG_04
Sample ID,PLG109
Mineral Name,Plagioclase
Grain Size,<45 um
Viewing Geometry,"i30, e0"
Resolution,7.71cm-1
Material Class,Tectosilicate

Wavelength
1670.16,0.39683
1672.32,0.3967
1674.48,0.39636
1676.64,0.39616
1678.81,0.39617
1680.99,0.39644
1683.18,0.39686
1685.36,0.39676
1687.56,0.39619
1689.76,0.39606
1691.96,0.39626
1694.18,0.3963
1696.39,0.39627
1698.62,0.39617
1700.85,0.39626
1703.08,0.39623
1705.32,0.39551
1707.57,0.39482
1709.82,0.39483
1712.08,0.39522
1714.35,0.39547
1716.62,0.39555
1718.89,0.39555
1721.18,0.39544
1723.46,0.39529
1725.76,0.39536
1728.06,0.39552
1730.37,0.39579
1732.68,0.39613
1735,0.39626
1737.33,0.39634
1739.66,0.39656
1742,0.39689
1744.34,0.397
1746.69,0.39651
1749.05,0.39607
1751.41,0.3962
1753.78,0.39629
1756.16,0.39607
1758.54,0.39594
1760.93,0.39587
1763.33,0.39588
1765.73,0.39565
1768.14,0.39531
1770.55,0.39538
1772.98,0.39575
1775.4,0.39616
1777.84,0.39642
1780.28,0.39623
1782.73,0.39584
1785.19,0.3957
1787.65,0.39588
1790.12,0.39615
1792.59,0.39608
1795.08,0.39605
1797.57,0.3963
1800.06,0.39663
1802.57,0.39684
1805.08,0.39684
1807.59,0.39699
1810.12,0.3975
1812.65,0.39809
1815.19,0.39869
1817.73,0.40034
1820.29,0.40206
1822.85,0.40206
1825.42,0.40278
1827.99,0.40397
1830.57,0.40362
1833.16,0.40431
1835.76,0.40715
1838.36,0.40886
1840.97,0.40729
1843.59,0.40514
1846.22,0.40633
1848.85,0.40644
1851.49,0.40454
1854.14,0.40474
1856.8,0.40504
1859.46,0.40397
1862.13,0.40185
1864.81,0.40251
1867.5,0.40749
1870.19,0.41216
1872.9,0.41173
1875.61,0.40692
1878.33,0.40169
1881.05,0.39929
1883.79,0.39932
1886.53,0.39954
1889.28,0.40036
1892.04,0.40062
1894.8,0.40016
1897.58,0.40206
1900.36,0.40419
1903.15,0.40448
1905.95,0.4034
1908.76,0.40115
1911.57,0.40056
1914.39,0.40039
1917.23,0.40017
1920.07,0.40075
1922.92,0.39952
1925.77,0.39804
1928.64,0.39773
1931.51,0.39723
1934.4,0.39675
1937.29,0.39652
1940.19,0.3962
1943.1,0.39598
1946.01,0.39591
1948.94,0.39565
1951.88,0.39543
1954.82,0.3955
1957.77,0.3956
1960.73,0.39574
1963.7,0.39583
1966.68,0.3957
1969.67,0.39549
1972.67,0.39545
1975.68,0.39556
1978.69,0.39578
1981.72,0.39598
1984.76,0.3961
1987.8,0.39627
1990.85,0.3962
1993.92,0.39597
1996.99,0.39594
2000.07,0.39597
2003.16,0.39588
2006.26,0.39596
2009.37,0.39645
2012.49,0.39694
2015.62,0.39696
2018.76,0.39698
2021.91,0.39709
2025.07,0.39694
2028.24,0.39681
2031.42,0.39701
2034.61,0.3973
2037.81,0.39753
2041.02,0.39746
2044.24,0.39717
2047.46,0.39722
2050.7,0.39751
2053.95,0.39758
2057.21,0.39754
2060.48,0.39769
2063.77,0.39784
2067.06,0.39792
2070.36,0.39816
2073.67,0.39834
2077,0.3984
2080.33,0.39852
2083.67,0.3987
2087.03,0.3988
2090.4,0.39874
2093.77,0.39856
2097.16,0.39844
2100.56,0.39844
2103.97,0.39853
2107.39,0.39873
2110.82,0.39893
2114.27,0.39898
2117.72,0.39906
2121.19,0.39911
2124.66,0.39892
2128.15,0.39899
2131.65,0.39909
2135.16,0.39881
2138.69,0.39878
2142.22,0.39905
2145.77,0.39908
2149.33,0.399
2152.9,0.399
2156.48,0.399
2160.08,0.39905
2163.68,0.39908
2167.3,0.39896
2170.93,0.39883
2174.57,0.39877
2178.23,0.39878
2181.89,0.39878
2185.57,0.39866
2189.27,0.39853
2192.97,0.3984
2196.69,0.39825
2200.42,0.39819
2204.16,0.39825
2207.91,0.39849
2211.68,0.39875
2215.46,0.39893
2219.26,0.39891
2223.06,0.39881
2226.88,0.39883
2230.71,0.39885
2234.56,0.39876
2238.42,0.39861
2242.29,0.39865
2246.18,0.3988
2250.08,0.39895
2253.99,0.39919
2257.92,0.39937
2261.86,0.39935
2265.813,0.39919
2269.78,0.39911
2273.76,0.39931
2277.76,0.39941
2281.77,0.39933
2285.79,0.39923
2289.83,0.39902
2293.89,0.39894
2297.95,0.39896
2302.03,0.39871
2306.13,0.39839
2310.24,0.39823
2314.37,0.39808
2318.51,0.39803
2322.66,0.39804
2326.83,0.39793
2331.02,0.3979
2335.22,0.39806
2339.43,0.39826
2343.66,0.39847
2347.91,0.39861
2352.17,0.39873
2356.45,0.39886
2360.74,0.39907
2365.05,0.39925
2369.37,0.39922
2373.71,0.39914
2378.06,0.39911
2382.44,0.39906
2386.82,0.39913
2391.23,0.39929
2395.65,0.3994
2400.08,0.39944
2404.54,0.39964
2409.01,0.39997
2413.49,0.40014
2417.99,0.40003
2422.51,0.39984
2427.05,0.3998
2431.6,0.40003
2436.17,0.40014
2440.76,0.39987
2445.37,0.39972
2449.99,0.39973
2454.63,0.39955
2459.29,0.39925
2463.96,0.39916
2468.66,0.39934
2473.37,0.39948
2478.1,0.39956
2482.84,0.39986
2487.61,0.40008
2492.39,0.40007
2497.2,0.40007
2502.02,0.40022
2506.86,0.40039
2511.72,0.401
2516.59,0.40176
2521.49,0.40244
2526.4,0.40439
2531.34,0.4073
2536.29,0.40887
2541.26,0.41065
2546.26,0.41289
2551.27,0.41277
2556.3,0.41559
2561.35,0.42393
2566.43,0.42743
2571.52,0.42751
2576.63,0.43082
2581.76,0.43612
2586.92,0.44
2592.09,0.44114
2597.28,0.4411
2602.5,0.44318
2607.74,0.44287
2612.99,0.44072
2618.27,0.43817
2623.57,0.43431
2628.89,0.43297
2634.24,0.42352
2639.6,0.41456
2644.99,0.41437
2650.4,0.4182
2655.83,0.42618
2661.28,0.44144
2666.76,0.45737
2672.26,0.45749
2677.779,0.44267
2683.32,0.42372
2688.89,0.40966
2694.48,0.3936
2700.09,0.36953
2705.73,0.34582
2711.39,0.32121
2717.08,0.29782
2722.78,0.27217
2728.52,0.24908
2734.27,0.24112
2740.05,0.23702
2745.86,0.22747
2751.69,0.22319
2757.54,0.22405
2763.42,0.22505
2769.327,0.22427
2775.26,0.22308
2781.21,0.22457
2787.19,0.22564
2793.2,0.22522
2799.23,0.22771
2805.29,0.22971
2811.38,0.22849
2817.49,0.22808
2823.63,0.22755
2829.79,0.2276
2835.98,0.22827
2842.2,0.2276
2848.45,0.22743
2854.72,0.22728
2861.03,0.22582
2867.36,0.22491
2873.71,0.22483
2880.1,0.22473
2886.51,0.22468
2892.96,0.22484
2899.43,0.22533
2905.93,0.22513
2912.46,0.22442
2919.02,0.22467
2925.61,0.2253
2932.23,0.22563
2938.88,0.22647
2945.56,0.22779
2952.27,0.22897
2959.01,0.23029
2965.78,0.23209
2972.58,0.23374
2979.41,0.23506
2986.28,0.23671
2993.18,0.2388
3000.1,0.24081
3007.07,0.24266
3014.06,0.2447
3021.084,0.24672
3028.14,0.24849
3035.23,0.25041
3042.36,0.25252
3049.52,0.25454
3056.71,0.25627
3063.94,0.25789
3071.2,0.25991
3078.49,0.26213
3085.82,0.26403
3093.19,0.26588
3100.59,0.26812
3108.02,0.27026
3115.49,0.27203
3123,0.27412
3130.54,0.27664
3138.12,0.27915
3145.74,0.28148
3153.39,0.28363
3161.09,0.28597
3168.81,0.28854
3176.58,0.2911
3184.39,0.29374
3192.23,0.29644
3200.11,0.29905
3208.03,0.30132
3215.99,0.30321
3223.99,0.305
3232.03,0.30659
3240.11,0.30828
3248.23,0.31044
3256.39,0.31283
3264.6,0.31513
3272.84,0.31716
3281.13,0.31906
3289.45,0.32115
3297.82,0.32326
3306.24,0.32512
3314.69,0.32692
3323.19,0.32838
3331.74,0.3293
3340.32,0.33
3348.95,0.33047
3357.63,0.33049
3366.35,0.33036
3375.12,0.33095
3383.93,0.33226
3392.79,0.33308
3401.69,0.33261
3410.64,0.33213
3419.64,0.33396
3428.69,0.33808
3437.79,0.34232
3446.93,0.34543
3456.12,0.34738
3465.36,0.34845
3474.65,0.34926
3483.99,0.35014
3493.38,0.35124
3502.82,0.35349
3512.32,0.35706
3521.86,0.36064
3531.46,0.36337
3541.11,0.36544
3550.81,0.36726
3560.56,0.36903
3570.37,0.37059
3580.23,0.37182
3590.15,0.37292
3600.13,0.37408
3610.15,0.37542
3620.24,0.3768
3630.38,0.37791
3640.58,0.37879
3650.83,0.37971
3661.14,0.3807
3671.52,0.38162
3681.95,0.38245
3692.44,0.38337
3702.99,0.38427
3713.6,0.38491
3724.27,0.38546
3735,0.38612
3745.79,0.38692
3756.65,0.38776
3767.57,0.38848
3778.56,0.38907
3789.61,0.38941
3800.72,0.38943
3811.9,0.38939
3823.14,0.38939
3834.45,0.38933
3845.83,0.38929
3857.28,0.38928
3868.79,0.38926
3880.37,0.38927
3892.03,0.38927
3903.75,0.3892
3915.54,0.38912
3927.41,0.38898
3939.35,0.38832
3951.36,0.38683
3963.44,0.38522
3975.6,0.38449
3987.83,0.3849
4000.14,0.38602
4012.52,0.38705
4024.98,0.38763
4037.52,0.388
4050.14,0.38828
4062.84,0.38845
4075.61,0.38845
4088.47,0.38825
4101.41,0.38799
4114.43,0.38763
4127.53,0.38715
4140.72,0.38671
4153.99,0.38609
4167.35,0.38524
4180.79,0.38557
4194.32,0.39197
4207.94,0.41105
4221.65,0.43772
4235.44,0.44607
4249.33,0.43048
4263.31,0.42151
4277.38,0.42376
4291.54,0.41832
4305.8,0.40334
4320.15,0.38745
4334.6,0.37554
4349.14,0.36827
4363.79,0.36376
4378.53,0.36047
4393.37,0.35786
4408.32,0.35558
4423.36,0.35322
4438.51,0.35062
4453.76,0.34798
4469.12,0.34542
4484.58,0.34254
4500.16,0.33933
4515.84,0.33604
4531.626,0.33266
4547.53,0.32905
4563.54,0.32524
4579.66,0.32129
4595.9,0.31753
4612.26,0.31389
4628.73,0.30984
4645.32,0.30547
4662.03,0.30153
4678.86,0.2979
4695.82,0.29464
4712.89,0.29177
4730.09,0.28908
4747.42,0.28649
4764.87,0.28405
4782.45,0.28162
4800.17,0.27935
4818.01,0.27725
4835.99,0.27528
4854.1,0.27306
4872.35,0.27079
4890.74,0.26849
4909.26,0.26576
4927.93,0.26297
4946.74,0.26039
4965.69,0.25706
4984.79,0.25325
5004.03,0.24978
5023.43,0.2458
5042.98,0.24041
5062.68,0.23484
5082.53,0.22921
5102.54,0.22317
5122.71,0.2181
5143.04,0.21348
5163.53,0.20817
5184.18,0.20405
5205,0.20088
5225.99,0.19656
5247.15,0.19207
5268.48,0.189
5289.98,0.18629
5311.66,0.18313
5333.52,0.1813
5355.56,0.17881
5377.78,0.17423
5400.19,0.17109
5422.78,0.16887
5445.57,0.16606
5468.54,0.16293
5491.72,0.15871
5515.09,0.15562
5538.65,0.15431
5562.43,0.15311
5586.4,0.15039
5610.58,0.14823
5634.98,0.14739
5659.59,0.14482
5684.41,0.14266
5709.45,0.14314
5734.71,0.14268
5760.2,0.13854
5785.92,0.13331
5811.86,0.13079
5838.04,0.12946
5864.46,0.12806
5891.11,0.12474
5918.01,0.11988
5945.16,0.11574
5972.56,0.1113
6000.21,0.10707
6028.12,0.10547
6056.29,0.10545
6084.72,0.10303
6113.42,0.10029
6142.39,0.09913
6171.64,0.09833
6201.17,0.09624
6230.99,0.09404
6261.09,0.09279
6291.48,0.09249
6322.17,0.09399
6353.16,0.09685
6384.46,0.09958
6416.06,0.10106
6447.99,0.1009
6480.23,0.10103
6512.79,0.09938
6545.68,0.09733
6578.91,0.09587
6612.47,0.09281
6646.38,0.08829
6680.64,0.08397
6715.26,0.08037
6750.23,0.07752
6785.58,0.07533
6821.29,0.07325
6857.38,0.07079
6893.86,0.06703
6930.72,0.06388
6967.98,0.06202
7005.65,0.06051
7043.72,0.05848
7082.21,0.05585
7121.13,0.05389
7160.47,0.05192
7200.25,0.04907
7240.48,0.0463
7281.15,0.04373
7322.29,0.04074
7363.89,0.03745
7405.97,0.03436
7448.53,0.03137
7491.59,0.0281
7535.15,0.02495
7579.21,0.02203
7623.79,0.01927
7668.91,0.01674
7714.55,0.01422
7760.75,0.0118
7807.5,0.0099
7854.82,0.00852
7902.71,0.0074
7951.2,0.00663
8000.28,0.00671
8049.97,0.00762
8100.28,0.00927
8151.23,0.01221
8202.82,0.01679
8255.06,0.02252
8307.98,0.02789
8361.58,0.03126
8415.88,0.03236
8470.88,0.03218
8526.61,0.03158
8583.08,0.03118
8640.3,0.0313
8698.29,0.03162
8757.06,0.03157
8816.63,0.03099
8877.02,0.03027
8938.24,0.02932
9000.31,0.02786
9063.25,0.02626
9127.08,0.02496
9191.81,0.02399
9257.46,0.02349
9324.07,0.02416
9391.63,0.02595
9460.18,0.02797
9529.74,0.02982
9600.33,0.03155
9671.98,0.03288
9744.7,0.03381
9818.52,0.03483
9893.47,0.0359
9969.58,0.03653
10046.9,0.03642
10125.4,0.03558
10205.1,0.03483
10286.1,0.03486
10368.4,0.03556
10452,0.03653
10537,0.03726
10623.3,0.03765
10711.1,0.03788
10800.4,0.0381
10891.1,0.03849
10983.4,0.03919
11077.3,0.04024
11172.8,0.04229
11270,0.04579
11368.8,0.04966
11469.4,0.05249
11571.8,0.05392
11676.1,0.0551
11782.2,0.05714
11890.3,0.05918
12000.4,0.05983
12112.6,0.05807
12226.8,0.05252
12343.3,0.0435
12462,0.03405
12583,0.02717
12706.3,0.02333
12832.1,0.02151
12960.5,0.02055
13091.4,0.01978
13224.9,0.01948
13361.3,0.01984
13500.5,0.01995
13642.6,0.01969
13787.7,0.01992
13936,0.02011
14087.4,0.01934
14242.3,0.01814
14400.5,0.01737
14562.3,0.01695
14727.8,0.01657
14897.1,0.01614
15070.3,0.01646
15247.6,0.01888
15429.1,0.02298
15615,0.02619
15805.4,0.0272
16000.6,0.02699
16200.6,0.02765
16405.6,0.03013
16616,0.03259
16831.8,0.03369
17053.2,0.03404
17280.6,0.034
17514.1,0.03309
17754,0.03172
18000.6,0.03179
18254.2,0.03348
18514.9,0.03409
18783.3,0.03307
19059.5,0.03393
19344,0.03404
19637,0.03052
19939.2,0.0272
20250.7,0.02447
20572.1,0.02225
20904,0.02129
21246.6,0.02231
21600.8,0.02428
21966.9,0.02431
22345.6,0.02324
22737.6,0.02194
23143.7,0.02196
23564.5,0.02482
24000.8,0.02537
24453.7,0.02437
24923.9,0.02618
25412.6,0.02476