File: csv_library/FTIR_LNR_3_7.csv
Database of Origin,University of Winnipeg Spectrophotometer Facility
Sample Description,Lunar samples/ analogues and glasses - D and P 102F FTIR spectra (from PSF) NASA Apollo lunar samples
Other Information,diffuse gold puck 100 spectra averaged
Date Added,2018-07-23 21:03:11.5269

Data ID,FTIR_LNR_3_7
Sample ID,apollo 11 ID# 10084 2009 162
Grain Size,<1mm?
Viewing Geometry,i=30/ e=0
Resolution,3 cm-1
Composition,regolith sample

Wavelength
2.001142,0.242743
2.003474,0.242421
2.005812,0.2432
2.008155,0.242843
2.010504,0.243068
2.012858,0.242637
2.015217,0.243143
2.017582,0.243667
2.019952,0.242848
2.022328,0.243576
2.024709,0.243015
2.027096,0.243254
2.029488,0.243521
2.031886,0.244241
2.034289,0.243552
2.036698,0.244002
2.039113,0.244051
2.041533,0.245067
2.043959,0.244672
2.046391,0.244902
2.048828,0.245125
2.051271,0.245256
2.05372,0.245527
2.056175,0.246469
2.058635,0.246387
2.061101,0.246759
2.063573,0.246196
2.066051,0.247494
2.068534,0.247078
2.071024,0.248024
2.073519,0.247515
2.07602,0.247695
2.078528,0.247592
2.081041,0.248163
2.08356,0.247985
2.086085,0.248714
2.088617,0.249279
2.091154,0.249107
2.093697,0.249734
2.096247,0.2497272
2.098803,0.250581
2.101364,0.250546
2.103932,0.250072
2.106506,0.250223
2.109087,0.250065
2.111673,0.249758
2.114266,0.250005
2.116865,0.25004
2.119471,0.250576
2.122082,0.250897
2.1247,0.251671
2.127325,0.252472
2.129956,0.25243
2.132593,0.252763
2.135237,0.252303
2.137887,0.25188
2.140544,0.252326
2.143207,0.252497
2.145876,0.252635
2.148553,0.253335
2.151235,0.25334
2.153925,0.253945
2.156621,0.253831
2.159324,0.254985
2.162033,0.254952
2.164749,0.255865
2.167472,0.256086
2.170202,0.257308
2.172938,0.256828
2.175682,0.257808
2.178432,0.257287
2.181189,0.257543
2.183952,0.2575826
2.186723,0.258458
2.189501,0.258861
2.192285,0.258798
2.195077,0.259004
2.197876,0.259281
2.200682,0.260137
2.203494,0.260695
2.206314,0.260043
2.209141,0.26074
2.211975,0.26127
2.214817,0.261667
2.217665,0.262049
2.220521,0.261916
2.223384,0.263045
2.226254,0.263003
2.229132,0.263296
2.232017,0.263457
2.23491,0.263035
2.237809,0.2633082
2.240717,0.26518
2.243631,0.265446
2.246554,0.265702
2.249483,0.265281
2.252421,0.266546
2.255365,0.266012
2.258318,0.266752
2.261278,0.266326
2.264246,0.266826
2.267221,0.267473
2.270204,0.267206
2.273195,0.2680865
2.276194,0.26798
2.279201,0.268291
2.282215,0.268481
2.285237,0.269843
2.288268,0.268995
2.291306,0.269503
2.294352,0.269257
2.297406,0.269902
2.300468,0.270499
2.303539,0.271067
2.306617,0.271798
2.309703,0.271214
2.312798,0.272779
2.315901,0.27232
2.319012,0.273187
2.322131,0.272972
2.325259,0.272916
2.328395,0.273831
2.33154,0.273462
2.334692,0.274419
2.337854,0.273897
2.341023,0.274613
2.344201,0.274786
2.347388,0.274719
2.350583,0.275798
2.353787,0.276181
2.357,0.27665
2.360221,0.277113
2.363451,0.277028
2.36669,0.277279
2.369937,0.277873
2.373194,0.277705
2.376459,0.277947
2.379733,0.279022
2.383016,0.278461
2.386308,0.279291
2.389609,0.279966
2.392919,0.280134
2.396238,0.280433
2.399566,0.281466
2.402903,0.280892
2.40625,0.281898
2.409606,0.281798
2.412971,0.282298
2.416345,0.282683
2.419729,0.283797
2.423122,0.283225
2.426524,0.284262
2.429936,0.283462
2.433358,0.284749
2.436789,0.284454
2.440229,0.284853
2.443679,0.286896
2.447139,0.286419
2.450609,0.287056
2.454088,0.28703
2.457577,0.28742
2.461076,0.287741
2.464585,0.288874
2.468104,0.288802
2.471632,0.289528
2.475171,0.289669
2.47872,0.290054
2.482278,0.290715
2.485847,0.290791
2.489427,0.291505
2.493016,0.292472
2.496615,0.29321
2.500225,0.293812
2.503845,0.293987
2.507476,0.294127
2.511117,0.294998
2.514769,0.29583
2.518431,0.296719
2.522103,0.296993
2.525787,0.297092
2.52948,0.29743
2.533185,0.298641
2.5369,0.299953
2.540627,0.29913
2.544364,0.300002
2.548112,0.30124
2.55187,0.303116
2.55564,0.30077
2.559421,0.303718
2.563213,0.307147
2.567016,0.302154
2.570831,0.303828
2.574656,0.306407
2.578493,0.304788
2.582342,0.30927
2.586201,0.307673
2.590072,0.306573
2.593955,0.319346
2.597849,0.305945
2.601755,0.30845
2.605672,0.314787
2.609601,0.309612
2.613542,0.308495
2.617495,0.314369
2.621459,0.314621
2.625435,0.313093
2.629424,0.314497
2.633424,0.311728
2.637437,0.309648
2.641461,0.311558
2.645498,0.312864
2.649547,0.310266
2.653609,0.314141
2.657682,0.312103
2.661768,0.314557
2.665867,0.325684
2.669978,0.324865
2.674102,0.312701
2.678238,0.319948
2.682387,0.313568
2.686549,0.314852
2.690724,0.312742
2.694911,0.318658
2.699112,0.312076
2.703325,0.311801
2.707552,0.31093
2.711791,0.315998
2.716044,0.306149
2.72031,0.313862
2.724589,0.308327
2.728882,0.299668
2.733188,0.297846
2.737508,0.296324
2.741841,0.299983
2.746188,0.293774
2.750549,0.292502
2.754923,0.294636
2.759311,0.290337
2.763713,0.29238
2.768129,0.291209
2.772559,0.290471
2.777003,0.289238
2.781461,0.289237
2.785934,0.288881
2.79042,0.288525
2.794922,0.288193
2.799437,0.287849
2.803967,0.290928
2.808512,0.288302
2.813071,0.287231
2.817645,0.2869
2.822233,0.288507
2.826837,0.287763
2.831455,0.28753
2.836089,0.288653
2.840737,0.288034
2.845401,0.288908
2.85008,0.288219
2.854774,0.28912
2.859484,0.288015
2.864209,0.288394
2.868949,0.288679
2.873705,0.2885921
2.878477,0.287666
2.883265,0.287354
2.888068,0.288521
2.892887,0.288722
2.897723,0.288462
2.902574,0.288649
2.907441,0.288545
2.912325,0.28894
2.917225,0.290668
2.922142,0.28856
2.927075,0.28817
2.932024,0.287999
2.93699,0.28928
2.941973,0.289898
2.946973,0.291432
2.951989,0.288543
2.957023,0.290848
2.962073,0.289279
2.967141,0.289642
2.972226,0.289882
2.977328,0.292502
2.982448,0.290037
2.987586,0.290426
2.99274,0.292949
2.997913,0.291897
3.003103,0.292327
3.008312,0.291762
3.013538,0.292831
3.018782,0.2928078
3.024044,0.293112
3.029325,0.294637
3.034624,0.297183
3.039942,0.295799
3.045278,0.297414
3.050632,0.296032
3.056006,0.296699
3.061398,0.297338
3.066809,0.299576
3.072239,0.298682
3.077689,0.298002
3.083157,0.299364
3.088645,0.300021
3.094153,0.299036
3.099679,0.300535
3.105226,0.299721
3.110792,0.299646
3.116378,0.299521
3.121985,0.300152
3.127611,0.29953
3.133257,0.299999
3.138924,0.300567
3.144611,0.3005297
3.150319,0.301494
3.156047,0.301563
3.161796,0.302082
3.167566,0.302289
3.173356,0.302545
3.179168,0.303585
3.185001,0.303518
3.190856,0.302928
3.196731,0.304736
3.202629,0.30472
3.208548,0.304274
3.214488,0.307708
3.220451,0.307588
3.226436,0.30765
3.232443,0.306214
3.238472,0.30696
3.244523,0.307854
3.250598,0.308792
3.256694,0.31035
3.262814,0.307498
3.268956,0.308809
3.275122,0.308334
3.28131,0.308582
3.287522,0.309915
3.293757,0.309624
3.300016,0.310481
3.306299,0.311404
3.312605,0.310203
3.318936,0.311044
3.32529,0.311965
3.331669,0.314117
3.338072,0.311355
3.344499,0.312359
3.350952,0.313394
3.357429,0.312017
3.363931,0.313038
3.370458,0.313125
3.37701,0.312304
3.383588,0.313278
3.390191,0.314498
3.39682,0.315797
3.403475,0.316125
3.410156,0.316056
3.416862,0.316421
3.423596,0.319095
3.430355,0.319369
3.437141,0.320891
3.443954,0.324912
3.450794,0.321314
3.457661,0.322284
3.464556,0.323955
3.471477,0.323215
3.478426,0.323866
3.485403,0.324479
3.492408,0.328422
3.499441,0.327096
3.506502,0.328394
3.513592,0.32958
3.52071,0.330866
3.527857,0.331422
3.535032,0.33515
3.542237,0.333675
3.549471,0.334417
3.556735,0.335833
3.564028,0.336925
3.571351,0.338997
3.578704,0.339289
3.586088,0.341891
3.593501,0.342237
3.600946,0.343339
3.608421,0.343733
3.615926,0.346329
3.623463,0.346185
3.631032,0.347033
3.638632,0.34826
3.646263,0.349477
3.653927,0.351393
3.661623,0.35231
3.669351,0.353947
3.677111,0.355734
3.684905,0.357936
3.692731,0.358902
3.70059,0.360343
3.708483,0.362602
3.716409,0.364448
3.72437,0.366013
3.732364,0.368162
3.740392,0.37014
3.748455,0.3723
3.756553,0.373918
3.764685,0.375811
3.772853,0.378205
3.781056,0.38031
3.789294,0.382727
3.797568,0.384595
3.805879,0.387447
3.814225,0.389671
3.822609,0.391891
3.831029,0.393819
3.839486,0.396076
3.84798,0.398049
3.856512,0.400451
3.865081,0.402891
3.873689,0.404776
3.882334,0.407275
3.891019,0.409573
3.899742,0.412017
3.908504,0.414578
3.917305,0.417022
3.926146,0.419242
3.935027,0.422079
3.943948,0.425094
3.952909,0.428302
3.961911,0.431007
3.970954,0.435343
3.980038,0.438351
3.989163,0.441219
3.99833,0.443573
4.00754,0.446258
4.016791,0.449418
4.026086,0.452628
4.035423,0.455483
4.044804,0.459207
4.054228,0.463065
4.063695,0.466819
4.073207,0.470995
4.082764,0.474892
4.092365,0.478669
4.102012,0.483271
4.111703,0.487841
4.121441,0.492488
4.131224,0.496517
4.141054,0.502194
4.150931,0.507272
4.160854,0.512182
4.170826,0.517605
4.180844,0.522478
4.190911,0.528125
4.201026,0.533813
4.21119,0.540796
4.221404,0.548656
4.231666,0.556446
4.241979,0.562542
4.252341,0.565224
4.262754,0.570448
4.273219,0.578314
4.283734,0.585623
4.294301,0.5906
4.30492,0.597275
4.315592,0.60293
4.326317,0.609019
4.337095,0.613811
4.347926,0.62072
4.358811,0.629684
4.369751,0.636012
4.380746,0.64311
4.391796,0.650009
4.402902,0.659097
4.414064,0.666128
4.425282,0.673313
4.436558,0.680848
4.447891,0.688244
4.459281,0.694764
4.47073,0.701291
4.482238,0.706303
4.493805,0.711735
4.505431,0.719065
4.517118,0.723216
4.528865,0.727043
4.540674,0.731233
4.552543,0.738721
4.564475,0.74283
4.57647,0.748693
4.588527,0.755098
4.600648,0.759183
4.612833,0.764405
4.625082,0.768345
4.637397,0.774412
4.649777,0.779322
4.662223,0.785931
4.674735,0.792573
4.687315,0.799423
4.699962,0.805712
4.712678,0.813459
4.725463,0.820857
4.738316,0.82743
4.75124,0.834781
4.764234,0.841664
4.777299,0.847824
4.790436,0.853708
4.803645,0.85864
4.816927,0.864176
4.830283,0.868085
4.843712,0.871846
4.857216,0.878013
4.870795,0.880843
4.884451,0.881443
4.898182,0.886836
4.911991,0.890145
4.925878,0.89279
4.939844,0.896301
4.953888,0.899308
4.968013,0.902007
4.982218,0.905101
4.996504,0.908205
5.010872,0.9113548
5.025323,0.915322
5.039857,0.917745
5.054475,0.920805
5.069179,0.92354
5.083967,0.927681
5.098842,0.929962
5.113804,0.933244
5.128854,0.937103
5.143992,0.940269
5.15922,0.942834
5.174538,0.945272
5.189947,0.948885
5.205448,0.952753
5.221041,0.9558027
5.236728,0.959412
5.25251,0.96227
5.268386,0.965795
5.284358,0.969343
5.300428,0.972772
5.316595,0.976146
5.33286,0.979288
5.349226,0.985626
5.365692,0.987411
5.382259,0.992978
5.398928,0.0100089
5.415701,0.0101427
5.432579,0.01031
5.449561,0.0106454
5.46665,0.0114144
5.483846,0.0131763
5.50115,0.0183987
5.518564,0.643046
5.536087,0.484143
5.553723,0.61385
5.57147,0.691078
5.589332,0.738144
5.607307,0.767548
5.625399,0.792173
5.643607,0.801661
5.661934,0.822545
5.680379,0.83347
5.698945,0.844432
5.717633,0.851084
5.736443,0.860147
5.755377,0.866134
5.774436,0.874173
5.793621,0.880296
5.812934,0.885337
5.832376,0.891149
5.851948,0.896498
5.871652,0.899929
5.891488,0.90335
5.911459,0.915508
5.931565,0.910505
5.951809,0.927884
5.97219,0.9263817
5.992711,0.929625
6.013374,0.930214
6.034179,0.936198
6.055129,0.933116
6.076224,0.933729
6.097466,0.939495
6.118857,0.937777
6.140398,0.940913
6.162091,0.944284
6.183938,0.939986
6.20594,0.952229
6.228099,0.956671
6.250416,0.959941
6.272893,0.962374
6.295533,0.965501
6.318336,0.966614
6.341304,0.958543
6.36444,0.968409
6.387745,0.97554
6.411221,0.954632
6.434869,0.976389
6.458693,0.980788
6.482693,0.97084
6.506872,0.989024
6.531231,0.995536
6.555774,0.992707
6.580501,0.996294
6.605415,0.0100204
6.630518,0.990725
6.655812,0.010113
6.6813,0.010089
6.706983,0.0101005
6.732864,0.0101787
6.758945,0.0101966
6.785229,0.0101395
6.811718,0.0102305
6.838413,0.0102817
6.865319,0.0102272
6.892437,0.0102954
6.919769,0.010334
6.947319,0.010319
6.975089,0.0104008
7.003081,0.0104188
7.031298,0.0104053
7.059743,0.0104788
7.088419,0.0104937
7.117329,0.010499
7.146475,0.0105069
7.17586,0.0105544
7.205487,0.0105501
7.23536,0.0105874
7.265481,0.0106041
7.295854,0.0106341
7.326481,0.0106419
7.357366,0.0106829
7.388512,0.0106987
7.419922,0.010724
7.451601,0.0107376
7.48355,0.0107718
7.515774,0.0107902
7.548277,0.0108078
7.581061,0.0108296
7.614131,0.0108531
7.647491,0.0108731
7.681143,0.0108992
7.715093,0.0109133
7.749343,0.0109378
7.783899,0.0109619
7.818764,0.0109793
7.853942,0.0109939
7.889437,0.0110127
7.925254,0.0110263
7.961398,0.0110712
7.997872,0.0111045
8.034682,0.0111366
8.071832,0.0111658
8.109326,0.0111946
8.147169,0.0112247
8.185368,0.0112481
8.223925,0.0112777
8.262847,0.0113049
8.302139,0.0113259
8.341805,0.0113404
8.381852,0.0113531
8.422285,0.0113756
8.463109,0.0113942
8.504331,0.011419
8.545955,0.0114352
8.587989,0.0114537
8.630437,0.0114657
8.673307,0.0114792
8.716604,0.0114874
8.760335,0.0114999
8.804507,0.0115069
8.849125,0.0115065
8.894198,0.011503
8.939732,0.0115015
8.985733,0.0115143
9.03221,0.0115202
9.07917,0.0115212
9.12662,0.0115252
9.174568,0.0115145
9.223022,0.0115266
9.27199,0.0115368
9.32148,0.0115435
9.3715,0.0115535
9.42206,0.0115701
9.473167,0.0115583
9.524832,0.0115514
9.577062,0.0115542
9.629868,0.0115506
9.683259,0.0115504
9.737244,0.0115527
9.791834,0.0115521
9.847039,0.0115574
9.902869,0.0115683
9.959336,0.0115749
10.0164,0.0115743
10.0742,0.0115775
10.1327,0.0115724
10.1918,0.0115688
10.2516,0.0115596
10.3121,0.01155
10.37336,0.0115411
10.4353,0.0115359
10.498,0.0115272
10.5615,0.0115214
10.6258,0.0115171
10.69079,0.0115057
10.7566,0.0114974
10.8233,0.0114962
10.8907,0.0114829
10.9591,0.0114706
11.02824,0.0114593
11.0983,0.0114413
11.1693,0.0114244
11.2411,0.011407
11.3139,0.0113914
11.3877,0.0113794
11.46238,0.0113531
11.5381,0.0113552
11.6148,0.0113367
11.6925,0.0113184
11.77129,0.011302
11.8511,0.0112833
11.9321,0.0112526
12.0141,0.0112431
12.0973,0.0112096
12.1816,0.0111985
12.26716,0.0111785
12.3539,0.0111556
12.4419,0.0111343
12.5311,0.0111325
12.6216,0.0111369
12.7134,0.0111458
12.8066,0.0111487
12.9012,0.0111321
12.9971,0.0111028
13.09451,0.0110792
13.1934,0.0110527
13.29374,0.0110324
13.3956,0.0110058
13.4991,0.0109751
13.6042,0.0109026
13.7109,0.010898
13.8194,0.0108695
13.9295,0.0108315
14.0414,0.0107775
14.1552,0.010745
14.2707,0.0106722
14.3882,0.0106075
14.5077,0.0104972
14.6291,0.0103954
14.7526,0.0102212
14.8782,0.0100792
15.00592,0.973943
15.1359,0.924685
15.2681,0.861117
15.4026,0.786401
15.5396,0.687014
15.679,0.548294
15.8209,0.453126
15.9654,0.371631