File: csv_library/FTIR_PLG_10.csv
Database of Origin,University of Winnipeg Spectrophotometer Facility
Sample Description,IR Reflectance spectra of plagioclase with a Bruker Vertex 70 FTIR. See Master Plagioclase in PSF database for additional info.
Date Added,2016-11-22 04:00:06.409220

Data ID,FTIR_PLG_10
Sample ID,PLG130
Mineral Name,Plagioclase
Grain Size,<45 um
Viewing Geometry,"i30, e0"
Resolution,7.71cm-1
Material Class,Tectosilicate

Wavelength
1670.16,0.49039
1672.32,0.4906
1674.48,0.49079
1676.64,0.4906
1678.81,0.49036
1680.99,0.49054
1683.18,0.49112
1685.36,0.49109
1687.56,0.49076
1689.76,0.49079
1691.96,0.49043
1694.18,0.48992
1696.39,0.48984
1698.62,0.48974
1700.85,0.4902
1703.08,0.49096
1705.32,0.49044
1707.57,0.48947
1709.82,0.48938
1712.08,0.48976
1714.35,0.49007
1716.62,0.4901
1718.89,0.48977
1721.18,0.48943
1723.46,0.48923
1725.76,0.48914
1728.06,0.48922
1730.37,0.48942
1732.68,0.4895
1735,0.48945
1737.33,0.48962
1739.66,0.48964
1742,0.48953
1744.34,0.48956
1746.69,0.48929
1749.05,0.48863
1751.41,0.48804
1753.78,0.48803
1756.16,0.48835
1758.54,0.48831
1760.93,0.48782
1763.33,0.48775
1765.73,0.48809
1768.14,0.48815
1770.55,0.48794
1772.98,0.48796
1775.4,0.48862
1777.84,0.48912
1780.28,0.48851
1782.73,0.48792
1785.19,0.48816
1787.65,0.48848
1790.12,0.48833
1792.59,0.48803
1795.08,0.48802
1797.57,0.48829
1800.06,0.48861
1802.57,0.48864
1805.08,0.48856
1807.59,0.48889
1810.12,0.48966
1812.65,0.49047
1815.19,0.49089
1817.73,0.49178
1820.29,0.49298
1822.85,0.493
1825.42,0.4937
1827.99,0.49504
1830.57,0.49507
1833.16,0.49569
1835.76,0.49812
1838.36,0.49971
1840.97,0.49861
1843.59,0.49688
1846.22,0.498
1848.85,0.49758
1851.49,0.4952
1854.14,0.49532
1856.8,0.49567
1859.46,0.49449
1862.13,0.49212
1864.81,0.4924
1867.5,0.49687
1870.19,0.50123
1872.9,0.50051
1875.61,0.49523
1878.33,0.48964
1881.05,0.48687
1883.79,0.48614
1886.53,0.48505
1889.28,0.48448
1892.04,0.48354
1894.8,0.48177
1897.58,0.48211
1900.36,0.48269
1903.15,0.4815
1905.95,0.47828
1908.76,0.47368
1911.57,0.47113
1914.39,0.46914
1917.23,0.46693
1920.07,0.46505
1922.92,0.46158
1925.77,0.45869
1928.64,0.45716
1931.51,0.45496
1934.4,0.45281
1937.29,0.4514
1940.19,0.45001
1943.1,0.44876
1946.01,0.44823
1948.94,0.44818
1951.88,0.44819
1954.82,0.44804
1957.77,0.44785
1960.73,0.44792
1963.7,0.44833
1966.68,0.4487
1969.67,0.44899
1972.67,0.44948
1975.68,0.45019
1978.69,0.45097
1981.72,0.45178
1984.76,0.45271
1987.8,0.4538
1990.85,0.45507
1993.92,0.45632
1996.99,0.45722
2000.07,0.45801
2003.16,0.45913
2006.26,0.46035
2009.37,0.46141
2012.49,0.46236
2015.62,0.46309
2018.76,0.46375
2021.91,0.46448
2025.07,0.4651
2028.24,0.46565
2031.42,0.4662
2034.61,0.46679
2037.81,0.46721
2041.02,0.46747
2044.24,0.46757
2047.46,0.46764
2050.7,0.46795
2053.95,0.46844
2057.21,0.46886
2060.48,0.46913
2063.77,0.46937
2067.06,0.46988
2070.36,0.47067
2073.67,0.4711
2077,0.47108
2080.33,0.47124
2083.67,0.47168
2087.03,0.47199
2090.4,0.47216
2093.77,0.47236
2097.16,0.47269
2100.56,0.47308
2103.97,0.47342
2107.39,0.47386
2110.82,0.47426
2114.27,0.47439
2117.72,0.47435
2121.19,0.47438
2124.66,0.47442
2128.15,0.47458
2131.65,0.47491
2135.16,0.47507
2138.69,0.47527
2142.22,0.4756
2145.77,0.47579
2149.33,0.47576
2152.9,0.47575
2156.48,0.47584
2160.08,0.4757
2163.68,0.47537
2167.3,0.47543
2170.93,0.47578
2174.57,0.47592
2178.23,0.47594
2181.89,0.47607
2185.57,0.47634
2189.27,0.47657
2192.97,0.4765
2196.69,0.47648
2200.42,0.47665
2204.16,0.47676
2207.91,0.47682
2211.68,0.47677
2215.46,0.47674
2219.26,0.47683
2223.06,0.47687
2226.88,0.47687
2230.71,0.47691
2234.56,0.4769
2238.42,0.47698
2242.29,0.47703
2246.18,0.47691
2250.08,0.47683
2253.99,0.47689
2257.92,0.47691
2261.86,0.47682
2265.813,0.47665
2269.78,0.47657
2273.76,0.47662
2277.76,0.47645
2281.77,0.47625
2285.79,0.4763
2289.83,0.47621
2293.89,0.476
2297.95,0.47586
2302.03,0.47564
2306.13,0.47521
2310.24,0.47483
2314.37,0.47469
2318.51,0.47463
2322.66,0.47447
2326.83,0.47421
2331.02,0.47393
2335.22,0.47358
2339.43,0.47309
2343.66,0.4726
2347.91,0.47205
2352.17,0.4713
2356.45,0.47054
2360.74,0.4699
2365.05,0.46933
2369.37,0.46871
2373.71,0.46774
2378.06,0.46642
2382.44,0.46501
2386.82,0.46376
2391.23,0.46253
2395.65,0.46113
2400.08,0.4596
2404.54,0.45816
2409.01,0.45694
2413.49,0.45586
2417.99,0.45471
2422.51,0.4535
2427.05,0.4524
2431.6,0.45159
2436.17,0.45077
2440.76,0.44988
2445.37,0.44922
2449.99,0.44859
2454.63,0.4479
2459.29,0.44722
2463.96,0.44655
2468.66,0.44614
2473.37,0.44584
2478.1,0.4456
2482.84,0.44568
2487.61,0.44584
2492.39,0.44581
2497.2,0.44556
2502.02,0.44555
2506.86,0.4458
2511.72,0.44637
2516.59,0.44686
2521.49,0.4472
2526.4,0.44888
2531.34,0.45147
2536.29,0.45269
2541.26,0.45421
2546.26,0.45635
2551.27,0.45592
2556.3,0.45798
2561.35,0.46531
2566.43,0.46821
2571.52,0.46809
2576.63,0.47085
2581.76,0.47531
2586.92,0.47841
2592.09,0.47873
2597.28,0.47789
2602.5,0.47939
2607.74,0.47846
2612.99,0.47545
2618.27,0.47187
2623.57,0.46709
2628.89,0.46466
2634.24,0.45422
2639.6,0.44419
2644.99,0.44231
2650.4,0.44405
2655.83,0.44956
2661.28,0.46183
2666.76,0.47431
2672.26,0.4715
2677.779,0.45564
2683.32,0.43747
2688.89,0.42543
2694.48,0.41462
2700.09,0.40064
2705.73,0.39118
2711.39,0.38406
2717.08,0.3758
2722.78,0.3581
2728.52,0.33396
2734.27,0.32054
2740.05,0.30559
2745.86,0.28298
2751.69,0.26714
2757.54,0.25559
2763.42,0.24391
2769.327,0.23059
2775.26,0.21825
2781.21,0.20942
2787.19,0.20084
2793.2,0.1933
2799.23,0.18971
2805.29,0.18608
2811.38,0.18085
2817.49,0.17669
2823.63,0.17284
2829.79,0.16986
2835.98,0.16753
2842.2,0.16475
2848.45,0.1625
2854.72,0.16062
2861.03,0.15872
2867.36,0.15738
2873.71,0.15651
2880.1,0.15567
2886.51,0.15476
2892.96,0.15395
2899.43,0.15345
2905.93,0.15246
2912.46,0.15099
2919.02,0.14979
2925.61,0.14881
2932.23,0.14786
2938.88,0.14721
2945.56,0.14709
2952.27,0.14719
2959.01,0.14753
2965.78,0.14844
2972.58,0.14948
2979.41,0.15009
2986.28,0.15062
2993.18,0.15138
3000.1,0.15209
3007.07,0.15253
3014.06,0.15274
3021.084,0.15267
3028.14,0.15224
3035.23,0.15163
3042.36,0.15118
3049.52,0.15097
3056.71,0.15097
3063.94,0.15145
3071.2,0.15256
3078.49,0.15389
3085.82,0.15538
3093.19,0.15739
3100.59,0.16
3108.02,0.16289
3115.49,0.16577
3123,0.1687
3130.54,0.17167
3138.12,0.17479
3145.74,0.17821
3153.39,0.18158
3161.09,0.18476
3168.81,0.18806
3176.58,0.19167
3184.39,0.19537
3192.23,0.19906
3200.11,0.20284
3208.03,0.2064
3215.99,0.20972
3223.99,0.21324
3232.03,0.2167
3240.11,0.22012
3248.23,0.22378
3256.39,0.2276
3264.6,0.23146
3272.84,0.23522
3281.13,0.23907
3289.45,0.24329
3297.82,0.24779
3306.24,0.25219
3314.69,0.2564
3323.19,0.26043
3331.74,0.26429
3340.32,0.26782
3348.95,0.27093
3357.63,0.27374
3366.35,0.27646
3375.12,0.27976
3383.93,0.28371
3392.79,0.28723
3401.69,0.28994
3410.64,0.29267
3419.64,0.29662
3428.69,0.30188
3437.79,0.30732
3446.93,0.31206
3456.12,0.31598
3465.36,0.31929
3474.65,0.3224
3483.99,0.32545
3493.38,0.32851
3502.82,0.33234
3512.32,0.33732
3521.86,0.34213
3531.46,0.34578
3541.11,0.34882
3550.81,0.352
3560.56,0.35525
3570.37,0.35824
3580.23,0.36105
3590.15,0.36377
3600.13,0.36628
3610.15,0.36866
3620.24,0.371
3630.38,0.37326
3640.58,0.37534
3650.83,0.37732
3661.14,0.37928
3671.52,0.38124
3681.95,0.38315
3692.44,0.38495
3702.99,0.3866
3713.6,0.3881
3724.27,0.38959
3735,0.39112
3745.79,0.39262
3756.65,0.39411
3767.57,0.39564
3778.56,0.39712
3789.61,0.39834
3800.72,0.39934
3811.9,0.40026
3823.14,0.4011
3834.45,0.40191
3845.83,0.40258
3857.28,0.40306
3868.79,0.40347
3880.37,0.40391
3892.03,0.40434
3903.75,0.40451
3915.54,0.4047
3927.41,0.40509
3939.35,0.40511
3951.36,0.40472
3963.44,0.40419
3975.6,0.40363
3987.83,0.40304
4000.14,0.40235
4012.52,0.40156
4024.98,0.40061
4037.52,0.39939
4050.14,0.398
4062.84,0.39653
4075.61,0.39484
4088.47,0.39311
4101.41,0.39134
4114.43,0.38949
4127.53,0.38757
4140.72,0.38546
4153.99,0.38309
4167.35,0.38063
4180.79,0.37922
4194.32,0.38389
4207.94,0.40143
4221.65,0.42672
4235.44,0.43382
4249.33,0.41703
4263.31,0.4061
4277.38,0.40492
4291.54,0.39488
4305.8,0.37492
4320.15,0.35472
4334.6,0.33985
4349.14,0.33091
4363.79,0.3257
4378.53,0.32268
4393.37,0.32146
4408.32,0.32127
4423.36,0.32142
4438.51,0.32167
4453.76,0.32199
4469.12,0.32225
4484.58,0.32214
4500.16,0.32171
4515.84,0.32087
4531.626,0.31962
4547.53,0.31815
4563.54,0.31638
4579.66,0.31405
4595.9,0.31155
4612.26,0.30893
4628.73,0.306
4645.32,0.30277
4662.03,0.29961
4678.86,0.29644
4695.82,0.29336
4712.89,0.29047
4730.09,0.28774
4747.42,0.28506
4764.87,0.28251
4782.45,0.27996
4800.17,0.27742
4818.01,0.27499
4835.99,0.2728
4854.1,0.27054
4872.35,0.2684
4890.74,0.26624
4909.26,0.26372
4927.93,0.26091
4946.74,0.25808
4965.69,0.25467
4984.79,0.25112
5004.03,0.2483
5023.43,0.24537
5042.98,0.24139
5062.68,0.23752
5082.53,0.23392
5102.54,0.22983
5122.71,0.22596
5143.04,0.22196
5163.53,0.21705
5184.18,0.21307
5205,0.20986
5225.99,0.20549
5247.15,0.20076
5268.48,0.19705
5289.98,0.1935
5311.66,0.18962
5333.52,0.18695
5355.56,0.1835
5377.78,0.17831
5400.19,0.17471
5422.78,0.17228
5445.57,0.16986
5468.54,0.16763
5491.72,0.16485
5515.09,0.1633
5538.65,0.16358
5562.43,0.16398
5586.4,0.16206
5610.58,0.15988
5634.98,0.15868
5659.59,0.15554
5684.41,0.15248
5709.45,0.15155
5734.71,0.1496
5760.2,0.14429
5785.92,0.13768
5811.86,0.13286
5838.04,0.12806
5864.46,0.12168
5891.11,0.11059
5918.01,0.09778
5945.16,0.08834
5972.56,0.08343
6000.21,0.08201
6028.12,0.08286
6056.29,0.08484
6084.72,0.08487
6113.42,0.08429
6142.39,0.08425
6171.64,0.08355
6201.17,0.08139
6230.99,0.07947
6261.09,0.07931
6291.48,0.08083
6322.17,0.08394
6353.16,0.08805
6384.46,0.09165
6416.06,0.09373
6447.99,0.09435
6480.23,0.09533
6512.79,0.09493
6545.68,0.09419
6578.91,0.094
6612.47,0.0922
6646.38,0.08922
6680.64,0.08656
6715.26,0.08438
6750.23,0.08252
6785.58,0.08105
6821.29,0.07947
6857.38,0.07738
6893.86,0.07414
6930.72,0.07146
6967.98,0.06971
7005.65,0.06777
7043.72,0.06504
7082.21,0.06182
7121.13,0.05938
7160.47,0.05696
7200.25,0.05363
7240.48,0.05039
7281.15,0.04748
7322.29,0.04425
7363.89,0.04063
7405.97,0.03715
7448.53,0.03396
7491.59,0.03061
7535.15,0.02738
7579.21,0.02434
7623.79,0.02125
7668.91,0.01832
7714.55,0.01567
7760.75,0.01314
7807.5,0.01085
7854.82,0.00903
7902.71,0.00762
7951.2,0.00654
8000.28,0.00581
8049.97,0.00544
8100.28,0.00558
8151.23,0.00651
8202.82,0.00843
8255.06,0.0112
8307.98,0.01416
8361.58,0.0165
8415.88,0.01809
8470.88,0.01927
8526.61,0.02017
8583.08,0.02066
8640.3,0.02091
8698.29,0.02119
8757.06,0.02146
8816.63,0.02191
8877.02,0.02233
8938.24,0.02233
9000.31,0.02177
9063.25,0.02063
9127.08,0.01922
9191.81,0.01821
9257.46,0.01786
9324.07,0.01782
9391.63,0.01821
9460.18,0.01922
9529.74,0.02078
9600.33,0.0228
9671.98,0.02477
9744.7,0.02655
9818.52,0.02787
9893.47,0.02853
9969.58,0.02893
10046.9,0.02919
10125.4,0.02921
10205.1,0.02941
10286.1,0.03045
10368.4,0.03227
10452,0.03408
10537,0.03534
10623.3,0.03615
10711.1,0.03673
10800.4,0.03693
10891.1,0.03623
10983.4,0.03504
11077.3,0.0345
11172.8,0.03477
11270,0.03559
11368.8,0.03697
11469.4,0.03877
11571.8,0.04045
11676.1,0.04201
11782.2,0.04414
11890.3,0.04721
12000.4,0.05062
12112.6,0.05262
12226.8,0.05109
12343.3,0.04522
12462,0.03683
12583,0.02882
12706.3,0.02283
12832.1,0.01951
12960.5,0.01824
13091.4,0.01744
13224.9,0.01701
13361.3,0.01684
13500.5,0.01654
13642.6,0.01635
13787.7,0.01637
13936,0.01626
14087.4,0.01548
14242.3,0.01439
14400.5,0.01359
14562.3,0.0131
14727.8,0.01296
14897.1,0.01371
15070.3,0.01495
15247.6,0.01614
15429.1,0.01851
15615,0.02163
15805.4,0.02384
16000.6,0.02466
16200.6,0.02468
16405.6,0.02586
16616,0.02857
16831.8,0.03029
17053.2,0.02997
17280.6,0.02851
17514.1,0.02697
17754,0.02607
18000.6,0.02588
18254.2,0.02704
18514.9,0.02848
18783.3,0.02621
19059.5,0.02173
19344,0.02162
19637,0.02491
19939.2,0.02626
20250.7,0.02475
20572.1,0.02357
20904,0.02411
21246.6,0.02347
21600.8,0.02246
21966.9,0.02283
22345.6,0.02235
22737.6,0.02217
23143.7,0.0252
23564.5,0.03084
24000.8,0.03524
24453.7,0.03836
24923.9,0.04554
25412.6,0.04941