File: csv_library/FTIR_PYX_12.csv
Database of Origin,University of Winnipeg Spectrophotometer Facility
Sample Description,"HOSERLab master pyroxenes, FTIR data"
Date Added,2016-12-14 03:34:49.865

Data ID,FTIR_PYX_12
Sample ID,PYX110
Mineral Name,Orthopyroxene
Grain Size,45-90 um
Viewing Geometry,"i=30, e=0"
Material Class,Inosilicate

Wavelength
2000.56,0.219529
2002.307,0.220472
2004.058,0.221157
2005.812,0.221936
2007.569,0.22318
2009.329,0.224072
2011.092,0.224792
2012.858,0.2259291
2014.627,0.22698
2016.399,0.227764
2018.174,0.228869
2019.952,0.23042
2021.733,0.231236
2023.518,0.232181
2025.305,0.233456
2027.096,0.234584
2028.89,0.235605
2030.686,0.236905
2032.486,0.238057
2034.289,0.23976
2036.096,0.2408389
2037.905,0.24175
2039.718,0.243513
2041.533,0.245077
2043.352,0.245737
2045.174,0.247209
2047.0,0.248684
2048.828,0.24979
2050.66,0.251039
2052.495,0.252259
2054.333,0.253315
2056.175,0.254796
2058.019,0.25635
2059.867,0.2577
2061.718,0.259482
2063.573,0.260413
2065.431,0.261619
2067.292,0.262889
2069.156,0.2643752
2071.024,0.2658
2072.895,0.267256
2074.769,0.268616
2076.647,0.270102
2078.528,0.271608
2080.412,0.27364
2082.3,0.275445
2084.191,0.276779
2086.085,0.277981
2087.983,0.279535
2089.885,0.281579
2091.789,0.283179
2093.697,0.28448
2095.609,0.285907
2097.524,0.287983
2099.443,0.289828
2101.364,0.291345
2103.29,0.2924
2105.219,0.294402
2107.151,0.296074
2109.087,0.297708
2111.026,0.29886
2112.969,0.300332
2114.915,0.302113
2116.865,0.30398
2118.819,0.306075
2120.776,0.308189
2122.736,0.310191
2124.7,0.311849
2126.668,0.313445
2128.64,0.315583
2130.614,0.317845
2132.593,0.320089
2134.575,0.3215665
2136.561,0.323499
2138.55,0.3253337
2140.544,0.327318
2142.54,0.329764
2144.541,0.332234
2146.545,0.333494
2148.553,0.335468
2150.564,0.337562
2152.579,0.3393694
2154.598,0.341539
2156.621,0.343588
2158.647,0.345341
2160.678,0.347688
2162.712,0.349974
2164.749,0.352071
2166.791,0.354055
2168.836,0.356286
2170.885,0.358051
2172.938,0.3599811
2174.995,0.362092
2177.056,0.364511
2179.12,0.366854
2181.189,0.368001
2183.261,0.370056
2185.337,0.372365
2187.417,0.374508
2189.501,0.376843
2191.589,0.378374
2193.68,0.380483
2195.776,0.382778
2197.876,0.38533
2199.979,0.387382
2202.087,0.389108
2204.199,0.390895
2206.314,0.393327
2208.434,0.39582
2210.557,0.397606
2212.685,0.399716
2214.817,0.402072
2216.952,0.4039887
2219.092,0.405825
2221.236,0.407666
2223.384,0.409086
2225.536,0.411415
2227.692,0.413224
2229.853,0.415007
2232.017,0.416937
2234.186,0.4189865
2236.359,0.420876
2238.536,0.422976
2240.717,0.424763
2242.902,0.426514
2245.092,0.4279
2247.285,0.42983
2249.483,0.4321909
2251.686,0.4338502
2253.892,0.435488
2256.103,0.43755
2258.318,0.43933
2260.537,0.440779
2262.761,0.442775
2264.989,0.444365
2267.221,0.445298
2269.458,0.446207
2271.699,0.447701
2273.944,0.449128
2276.194,0.450027
2278.448,0.451068
2280.707,0.452272
2282.97,0.452217
2285.237,0.45172
2287.509,0.451949
2289.786,0.45328
2292.067,0.455804
2294.352,0.459061
2296.642,0.460397
2298.936,0.4610247
2301.235,0.461821
2303.539,0.461663
2305.847,0.460915
2308.159,0.459626
2310.476,0.458977
2312.798,0.460111
2315.124,0.46456
2317.455,0.469137
2319.791,0.471678
2322.131,0.473661
2324.476,0.476987
2326.826,0.480712
2329.18,0.48334
2331.54,0.485565
2333.903,0.487576
2336.272,0.4898385
2338.645,0.491684
2341.023,0.493783
2343.406,0.495432
2345.794,0.49709
2348.186,0.498854
2350.583,0.500882
2352.986,0.502032
2355.393,0.503658
2357.804,0.505119
2360.221,0.506912
2362.643,0.50804
2365.069,0.508537
2367.501,0.5093645
2369.937,0.510152
2372.379,0.510426
2374.825,0.510946
2377.276,0.511416
2379.733,0.512133
2382.194,0.512246
2384.661,0.513392
2387.132,0.514296
2389.609,0.515112
2392.09,0.516654
2394.577,0.518284
2397.069,0.520067
2399.566,0.521914
2402.068,0.523993
2404.575,0.525717
2407.088,0.526833
2409.606,0.527836
2412.128,0.528453
2414.657,0.529393
2417.19,0.5303958
2419.729,0.5311726
2422.272,0.5309119
2424.822,0.5317696
2427.376,0.532675
2429.936,0.533576
2432.501,0.533409
2435.072,0.533919
2437.648,0.534777
2440.229,0.535503
2442.816,0.536119
2445.408,0.536847
2448.006,0.537798
2450.609,0.538147
2453.217,0.537565
2455.831,0.538283
2458.451,0.538897
2461.076,0.538718
2463.707,0.53884
2466.343,0.539359
2468.985,0.540204
2471.632,0.541477
2474.285,0.542062
2476.944,0.542638
2479.608,0.542942
2482.278,0.543551
2484.954,0.544158
2487.636,0.54408
2490.323,0.544902
2493.016,0.544517
2495.715,0.544682
2498.419,0.545008
2501.129,0.545481
2503.845,0.545911
2506.567,0.545888
2509.295,0.546584
2512.029,0.547353
2514.769,0.547463
2517.514,0.547484
2520.266,0.548366
2523.023,0.54842
2525.787,0.548011
2528.556,0.548665
2531.331,0.548751
2534.113,0.549203
2536.9,0.549968
2539.694,0.551272
2542.494,0.55052
2545.3,0.551172
2548.112,0.550955
2550.93,0.551596
2553.754,0.551456
2556.585,0.55128
2559.421,0.550887
2562.264,0.550508
2565.113,0.550903
2567.969,0.551581
2570.831,0.550862
2573.699,0.551471
2576.573,0.551703
2579.454,0.5522983
2582.342,0.551935
2585.235,0.551391
2588.135,0.5521457
2591.042,0.553792
2593.955,0.556498
2596.874,0.551174
2599.8,0.552769
2602.733,0.553473
2605.672,0.553751
2608.618,0.552817
2611.57,0.55318
2614.529,0.554514
2617.495,0.554086
2620.467,0.553858
2623.446,0.553694
2626.431,0.554076
2629.424,0.554546
2632.423,0.554034
2635.429,0.553638
2638.442,0.553823
2641.461,0.553366
2644.488,0.553275
2647.521,0.55222
2650.561,0.552504
2653.609,0.551021
2656.663,0.550409
2659.724,0.549107
2662.792,0.548724
2665.867,0.549213
2668.949,0.5480378
2672.038,0.541782
2675.135,0.539813
2678.238,0.53451
2681.349,0.526356
2684.467,0.515461
2687.591,0.500823
2690.724,0.485249
2693.863,0.466226
2697.01,0.43529
2700.164,0.407797
2703.325,0.377318
2706.494,0.35504
2709.67,0.345752
2712.853,0.330082
2716.044,0.312137
2719.242,0.288435
2722.448,0.298414
2725.661,0.312026
2728.882,0.303474
2732.111,0.294358
2735.347,0.303501
2738.59,0.307805
2741.841,0.304287
2745.1,0.296721
2748.367,0.295631
2751.641,0.295511
2754.923,0.29684
2758.213,0.294032
2761.51,0.293164
2764.816,0.292452
2768.129,0.292463
2771.45,0.292326
2774.779,0.292161
2778.116,0.292177
2781.461,0.291915
2784.814,0.292012
2788.175,0.29196
2791.544,0.2925245
2794.922,0.293038
2798.307,0.29371
2801.7,0.293856
2805.102,0.294004
2808.512,0.295258
2811.93,0.296165
2815.356,0.296579
2818.791,0.296462
2822.233,0.29605
2825.685,0.297053
2829.144,0.297437
2832.612,0.296852
2836.089,0.295319
2839.574,0.293363
2843.067,0.291028
2846.569,0.29006
2850.08,0.289512
2853.599,0.290747
2857.127,0.29201
2860.664,0.293755
2864.209,0.294636
2867.763,0.293964
2871.325,0.292847
2874.897,0.292527
2878.477,0.2916068
2882.066,0.291129
2885.664,0.290408
2889.271,0.290152
2892.887,0.289576
2896.512,0.2886004
2900.146,0.288148
2903.789,0.287598
2907.441,0.287803
2911.103,0.2875334
2914.773,0.2874033
2918.453,0.287408
2922.142,0.28562
2925.84,0.284597
2929.547,0.2843867
2933.264,0.284061
2936.99,0.283851
2940.726,0.284061
2944.471,0.284361
2948.225,0.285819
2951.989,0.284734
2955.763,0.285231
2959.546,0.284191
2963.339,0.284287
2967.141,0.284912
2970.953,0.284928
2974.775,0.28644
2978.607,0.286483
2982.448,0.285976
2986.3,0.286452
2990.161,0.28743
2994.032,0.288056
2997.913,0.288855
3001.804,0.2899847
3005.705,0.290635
3009.616,0.290849
3013.538,0.291995
3017.469,0.292578
3021.411,0.292848
3025.363,0.293651
3029.325,0.29535
3033.298,0.2975584
3037.281,0.296549
3041.274,0.296917
3045.278,0.298027
3049.292,0.2976761
3053.317,0.297729
3057.352,0.298066
3061.398,0.2991528
3065.455,0.300496
3069.522,0.300065
3073.6,0.300016
3077.689,0.3011717
3081.788,0.301664
3085.899,0.302379
3090.02,0.302798
3094.153,0.302621
3098.296,0.303653
3102.45,0.304489
3106.616,0.303804
3110.792,0.304387
3114.98,0.30532
3119.179,0.305597
3123.389,0.30621
3127.611,0.307081
3131.844,0.307925
3136.088,0.3085982
3140.344,0.309386
3144.611,0.310179
3148.89,0.311249
3153.18,0.312031
3157.482,0.312524
3161.796,0.313414
3166.121,0.314621
3170.458,0.315595
3174.807,0.316294
3179.168,0.318514
3183.541,0.319433
3187.926,0.3186433
3192.323,0.319913
3196.731,0.320751
3201.152,0.320923
3205.585,0.321885
3210.031,0.322444
3214.488,0.325237
3218.958,0.326053
3223.441,0.325066
3227.936,0.325765
3232.443,0.325562
3236.963,0.326183
3241.495,0.326665
3246.04,0.328017
3250.598,0.328847
3255.168,0.330695
3259.751,0.331037
3264.347,0.329213
3268.956,0.330101
3273.578,0.330343
3278.213,0.330477
3282.861,0.331363
3287.522,0.332338
3292.196,0.3330185
3296.884,0.334491
3301.585,0.333665
3306.299,0.333866
3311.026,0.333788
3315.767,0.334353
3320.522,0.334918
3325.29,0.336875
3330.072,0.338634
3334.867,0.337342
3339.676,0.336876
3344.499,0.337249
3349.336,0.33789
3354.187,0.337486
3359.052,0.3364043
3363.931,0.3368976
3368.824,0.336503
3373.731,0.335437
3378.652,0.33458
3383.588,0.335095
3388.538,0.336016
3393.502,0.336369
3398.481,0.336436
3403.475,0.335796
3408.483,0.33428
3413.506,0.331595
3418.543,0.33098
3423.596,0.332908
3428.663,0.3347124
3433.745,0.336828
3438.842,0.339908
3443.954,0.3418237
3449.082,0.340781
3454.224,0.340947
3459.382,0.341739
3464.556,0.342373
3469.744,0.341937
3474.948,0.3416736
3480.168,0.341894
3485.403,0.342414
3490.654,0.343741
3495.921,0.342374
3501.204,0.340913
3506.502,0.341669
3511.817,0.3434758
3517.147,0.345296
3522.494,0.346658
3527.857,0.347137
3533.236,0.34905
3538.631,0.349243
3544.043,0.348233
3549.471,0.348131
3554.916,0.348281
3560.378,0.348456
3565.856,0.348534
3571.351,0.348813
3576.863,0.348342
3582.392,0.34882
3587.938,0.348956
3593.501,0.348458
3599.082,0.348519
3604.679,0.347185
3610.294,0.347018
3615.926,0.347934
3621.576,0.347673
3627.244,0.347423
3632.929,0.3473053
3638.632,0.3470719
3644.353,0.34728
3650.091,0.347948
3655.848,0.347434
3661.623,0.346792
3667.416,0.347049
3673.227,0.347002
3679.057,0.347525
3684.905,0.347698
3690.771,0.346978
3696.656,0.346959
3702.56,0.347211
3708.483,0.346917
3714.425,0.346951
3720.385,0.346934
3726.365,0.346607
3732.364,0.3468805
3738.382,0.346978
3744.419,0.347497
3750.476,0.3475
3756.553,0.346962
3762.649,0.347017
3768.764,0.346999
3774.9,0.3468115
3781.056,0.346635
3787.231,0.346634
3793.427,0.346671
3799.643,0.346421
3805.879,0.346533
3812.135,0.346812
3818.412,0.347162
3824.71,0.347195
3831.029,0.347089
3837.368,0.347517
3843.728,0.347922
3850.109,0.348323
3856.512,0.348898
3862.935,0.3491169
3869.38,0.349649
3875.846,0.3499065
3882.334,0.350223
3888.844,0.350692
3895.375,0.351175
3901.929,0.3513749
3908.504,0.35132
3915.101,0.351679
3921.721,0.352075
3928.363,0.352629
3935.027,0.35318
3941.714,0.353817
3948.423,0.354686
3955.156,0.3554215
3961.911,0.3562668
3968.689,0.357711
3975.491,0.359074
3982.315,0.36025
3989.163,0.361273
3996.035,0.362368
4002.93,0.363623
4009.849,0.364473
4016.791,0.365328
4023.758,0.366285
4030.749,0.367389
4037.764,0.368656
4044.804,0.36967
4051.867,0.370911
4058.956,0.372331
4066.069,0.373438
4073.207,0.3744938
4080.371,0.37608
4087.559,0.378058
4094.773,0.379458
4102.012,0.380912
4109.276,0.382681
4116.566,0.384623
4123.882,0.38697
4131.224,0.3890141
4138.592,0.391222
4145.987,0.39374
4153.407,0.395778
4160.854,0.397911
4168.328,0.40039
4175.829,0.402513
4183.356,0.405095
4190.911,0.408754
4198.493,0.415578
4206.102,0.429489
4213.739,0.450071
4221.404,0.470479
4229.096,0.486544
4236.816,0.496843
4244.565,0.496002
4252.341,0.476926
4260.146,0.468311
4267.98,0.488803
4275.843,0.495078
4283.734,0.496323
4291.655,0.498396
4299.604,0.497362
4307.583,0.496443
4315.592,0.491598
4323.631,0.487887
4331.699,0.485327
4339.797,0.482914
4347.926,0.482943
4356.085,0.484326
4364.275,0.486231
4372.495,0.489141
4380.746,0.49238
4389.029,0.497138
4397.342,0.501756
4405.687,0.505809
4414.064,0.51028
4422.472,0.514559
4430.913,0.5187315
4439.386,0.522648
4447.891,0.525457
4456.428,0.528618
4464.998,0.531806
4473.602,0.534974
4482.238,0.537878
4490.908,0.539792
4499.611,0.542197
4508.347,0.544961
4517.118,0.5470766
4525.923,0.549028
4534.762,0.550511
4543.635,0.55179
4552.543,0.553689
4561.487,0.555477
4570.465,0.556613
4579.478,0.557762
4588.527,0.559734
4597.612,0.5607036
4606.732,0.562352
4615.889,0.563149
4625.082,0.564573
4634.312,0.565495
4643.578,0.567205
4652.882,0.568942
4662.223,0.571479
4671.601,0.575041
4681.017,0.5791838
4690.471,0.580704
4699.962,0.584683
4709.493,0.589322
4719.062,0.592235
4728.669,0.5956535
4738.316,0.5988619
4748.002,0.601102
4757.728,0.604322
4767.494,0.607183
4777.299,0.61018
4787.145,0.612773
4797.032,0.614889
4806.959,0.617463
4816.927,0.621172
4826.937,0.623223
4836.988,0.625469
4847.081,0.6290527
4857.216,0.633567
4867.393,0.636248
4877.613,0.638197
4887.876,0.641548
4898.182,0.646494
4908.532,0.649878
4918.925,0.651885
4929.362,0.655577
4939.844,0.65901
4950.37,0.662565
4960.941,0.665573
4971.556,0.667033
4982.218,0.669769
4992.925,0.671575
5003.678,0.674479
5014.477,0.678665
5025.323,0.681296
5036.216,0.6812425
5047.156,0.682958
5058.143,0.684604
5069.179,0.686424
5080.262,0.690743
5091.394,0.692196
5102.574,0.693647
5113.804,0.696306
5125.083,0.698364
5136.412,0.703012
5147.791,0.709627
5159.22,0.708783
5170.7,0.711959
5182.231,0.715837
5193.814,0.722652
5205.448,0.730554
5217.134,0.73332
5228.873,0.733069
5240.665,0.737973
5252.51,0.739548
5264.408,0.743057
5276.36,0.748488
5288.367,0.754489
5300.428,0.7557869
5312.544,0.756922
5324.715,0.759948
5336.942,0.764858
5349.226,0.776658
5361.566,0.771812
5373.962,0.770911
5386.417,0.772595
5398.928,0.774922
5411.498,0.783805
5424.127,0.792143
5436.814,0.785831
5449.561,0.791171
5462.368,0.806551
5475.234,0.815315
5488.162,0.81847
5501.15,0.825329
5514.2,0.854176
5527.312,0.890817
5540.486,0.930837
5553.723,0.848083
5567.023,0.621972
5580.387,0.574089
5593.815,0.6456485
5607.307,0.679724
5620.865,0.704325
5634.489,0.720533
5648.178,0.7294
5661.934,0.735912
5675.757,0.7457926
5689.647,0.752105
5703.606,0.7572916
5717.633,0.765858
5731.729,0.770243
5745.894,0.778334
5760.13,0.789357
5774.436,0.793031
5788.813,0.78937
5803.262,0.797573
5817.782,0.816021
5832.376,0.814116
5847.043,0.81221
5861.783,0.825231
5876.598,0.838318
5891.488,0.837504
5906.454,0.827705
5921.495,0.834486
5936.613,0.846164
5951.809,0.838781
5967.082,0.842819
5982.433,0.84421
5997.864,0.840888
6013.374,0.841994
6028.964,0.843568
6044.636,0.858297
6060.389,0.854989
6076.224,0.854095
6092.141,0.851488
6108.143,0.862666
6124.228,0.855741
6140.398,0.858667
6156.654,0.862768
6172.996,0.866121
6189.424,0.867646
6205.94,0.867444
6222.544,0.869681
6239.237,0.872252
6256.02,0.874006
6272.893,0.877632
6289.858,0.878093
6306.914,0.880462
6324.062,0.885339
6341.304,0.890825
6358.64,0.892532
6376.071,0.893467
6393.598,0.8955541
6411.221,0.907599
6428.941,0.900066
6446.759,0.899496
6464.676,0.90391
6482.693,0.911946
6500.81,0.907695
6519.029,0.909083
6537.35,0.909085
6555.774,0.913764
6574.302,0.917444
6592.934,0.916907
6611.673,0.919405
6630.518,0.925244
6649.47,0.9175787
6668.532,0.921002
6687.702,0.920809
6706.983,0.925773
6726.375,0.923599
6745.879,0.92364
6765.497,0.928275
6785.229,0.9303481
6805.076,0.927867
6825.039,0.930334
6845.12,0.933812
6865.319,0.934127
6885.637,0.93214
6906.076,0.933251
6926.636,0.932912
6947.319,0.936441
6968.125,0.93711
6989.057,0.938584
7010.114,0.939533
7031.298,0.942923
7052.611,0.94346
7074.052,0.943472
7095.625,0.945032
7117.329,0.946891
7139.166,0.949169
7161.137,0.949909
7183.244,0.950198
7205.487,0.951935
7227.869,0.952349
7250.39,0.954392
7273.051,0.955678
7295.854,0.956246
7318.8,0.958242
7341.891,0.959507
7365.128,0.959837
7388.512,0.961486
7412.045,0.963157
7435.728,0.964546
7459.562,0.966395
7483.55,0.966626
7507.692,0.967328
7531.99,0.968374
7556.446,0.969416
7581.061,0.970205
7605.837,0.970621
7630.774,0.971015
7655.876,0.971458
7681.143,0.972435
7706.577,0.972995
7732.18,0.973628
7757.953,0.974752
7783.899,0.975754
7810.018,0.976827
7836.313,0.978309
7862.786,0.979751
7889.437,0.981232
7916.27,0.9823422
7943.285,0.983507
7970.485,0.984751
7997.872,0.986051
8025.448,0.987072
8053.214,0.9882608
8081.173,0.98927
8109.326,0.989745
8137.676,0.990684
8166.224,0.9915311
8194.973,0.992712
8223.925,0.993718
8253.082,0.994474
8282.446,0.995635
8312.02,0.9967235
8341.805,0.997763
8371.804,0.998648
8402.02,0.999645
8432.454,0.0100029
8463.109,0.0100091
8493.988,0.0100154
8525.092,0.0100217
8556.425,0.0100266
8587.989,0.0100324
8619.786,0.010036
8651.819,0.0100405
8684.091,0.0100464
8716.604,0.0100525
8749.361,0.010061
8782.365,0.0100693
8815.619,0.0100775
8849.125,0.0100887
8882.887,0.0100978
8916.907,0.0101068
8951.188,0.0101157
8985.733,0.0101173
9020.546,0.0101175
9055.629,0.0101132
9090.986,0.0101119
9126.62,0.0101102
9162.534,0.0100993
9198.731,0.0100911
9235.215,0.0100882
9271.99,0.0100836
9309.058,0.0100823
9346.423,0.01008391
9384.089,0.0100853
9422.06,0.0100897
9460.339,0.0100952
9498.929,0.0101044
9537.836,0.0101094
9577.062,0.0101145
9616.612,0.0101217
9656.49,0.0101268
9696.699,0.0101346
9737.244,0.0101371
9778.129,0.0101346
9819.359,0.0101312
9860.938,0.0101312
9902.869,0.010132
9945.159,0.0101336
9987.811,0.0101341
10030.83,0.0101384
10074.221,0.0101407
10117.988,0.010144
10162.137,0.0101476
10206.672,0.010155
10251.6,0.0101649
10296.924,0.0101738
10342.65,0.0101779
10388.784,0.0101806
10435.331,0.0101825
10482.296,0.0101831
10529.686,0.0101833
10577.505,0.0101874
10625.761,0.0101912
10674.458,0.0101889
10723.604,0.0101864
10773.203,0.0101898
10823.264,0.010192
10873.791,0.0101957
10924.791,0.0102011
10976.272,0.0102048
11028.24,0.0102094
11080.702,0.0102126
11133.665,0.0102117
11187.137,0.010208
11241.124,0.0102013
11295.634,0.0101978
11350.675,0.0101969
11406.254,0.0101905
11462.38,0.010188
11519.06,0.0101813
11576.304,0.0101772
11634.118,0.010176
11692.513,0.0101755
11751.496,0.0101783
11811.077,0.010181
11871.265,0.0101858
11932.068,0.0101912
11993.497,0.0101952
12055.562,0.0102009
12118.271,0.0102001
12181.636,0.0101987
12245.667,0.0101983
12310.373,0.0101968
12375.767,0.0101941
12441.859,0.0101895
12508.659,0.010191
12576.18,0.0101896
12644.434,0.0101826
12713.432,0.0101818
12783.187,0.0101838
12853.71,0.010187
12925.016,0.0101891
12997.116,0.0101939
13070.025,0.0102038
13143.756,0.0102079
13218.322,0.0102155
13293.74,0.0102189
13370.021,0.0102239
13447.183,0.0102263
13525.24,0.0102246
13604.208,0.0102187
13684.103,0.0102089
13764.941,0.0101973
13846.739,0.0101919
13929.515,0.0101919
14013.285,0.0101906
14098.068,0.0101879
14183.883,0.0101808
14270.749,0.0101706
14358.684,0.0101774
14447.709,0.0101795
14537.844,0.0101684
14629.109,0.0101701
14721.528,0.0101718
14815.121,0.0101722
14909.91,0.0101783
15005.92,0.0101559
15103.173,0.010126
15201.695,0.0101115
15301.509,0.0100705
15402.642,0.997267
15505.12,0.980925
15608.97,0.9673
15714.22,0.928484
15820.897,0.883786
15929.033,0.848205
15965.407,0.822789