File: csv_library/FTIR_OLI_01.csv
Database of Origin,University of Winnipeg Spectrophotometer Facility
Sample Description,FTIR spectra of Olivnes from PSF sample database See Master Olivines in PSF sample database for additional info
Date Added,2016-12-06 04:17:21.4966

Data ID,FTIR_OLI_01
Sample ID,olv102m
Mineral Name,Olivine
Grain Size,<45 um
Viewing Geometry,"i=30, e=0?"
Resolution,~1.5 cm-1
Material Class,Nesosilicate

Wavelength
1999.978,0.82306
2001.725,0.822361
2003.474,0.821691
2005.227,0.820654
2006.983,0.818889
2008.742,0.817698
2010.504,0.816934
2012.269,0.815707
2014.037,0.815204
2015.808,0.814965
2017.582,0.814096
2019.359,0.812719
2021.139,0.811564
2022.923,0.811826
2024.709,0.81101
2026.499,0.810183
2028.291,0.81037
2030.087,0.809216
2031.886,0.809284
2033.688,0.809168
2035.493,0.808924
2037.302,0.808815
2039.113,0.807614
2040.928,0.807363
2042.746,0.806427
2044.567,0.805661
2046.391,0.8060108
2048.218,0.8052853
2050.049,0.804836
2051.883,0.805784
2053.72,0.805643
2055.56,0.80564
2057.404,0.805024
2059.251,0.80445
2061.101,0.804593
2062.954,0.8046382
2064.811,0.803254
2066.671,0.802623
2068.534,0.80309
2070.401,0.802185
2072.271,0.802131
2074.144,0.801486
2076.02,0.801163
2077.9,0.800215
2079.784,0.79843
2081.67,0.798211
2083.56,0.797272
2085.454,0.795993
2087.35,0.796033
2089.251,0.795433
2091.154,0.795254
2093.061,0.794798
2094.971,0.794314
2096.885,0.794959
2098.803,0.795999
2100.723,0.797264
2102.648,0.799462
2104.575,0.801051
2106.506,0.8025
2108.441,0.805294
2110.379,0.80708
2112.321,0.807128
2114.266,0.808355
2116.215,0.8092211
2118.167,0.807974
2120.123,0.806976
2122.082,0.804772
2124.045,0.802438
2126.012,0.79861
2127.982,0.793867
2129.956,0.793632
2131.933,0.796957
2133.914,0.796264
2135.899,0.79749
2137.887,0.796962
2139.879,0.796772
2141.874,0.796445
2143.873,0.796571
2145.876,0.79701
2147.883,0.795447
2149.893,0.79498
2151.907,0.793704
2153.925,0.791669
2155.946,0.790014
2157.972,0.786578
2160.001,0.784834
2162.033,0.7838521
2164.07,0.781879
2166.11,0.780696
2168.154,0.7785311
2170.202,0.778018
2172.254,0.777447
2174.309,0.775977
2176.368,0.7762931
2178.432,0.776211
2180.499,0.7742496
2182.57,0.773716
2184.644,0.77358
2186.723,0.772917
2188.806,0.772066
2190.892,0.77358
2192.983,0.773333
2195.077,0.771871
2197.175,0.770875
2199.278,0.771393
2201.384,0.770246
2203.494,0.769401
2205.609,0.768113
2207.727,0.767659
2209.849,0.765579
2211.975,0.763875
2214.106,0.761439
2216.24,0.759717
2218.379,0.758811
2220.521,0.757198
2222.668,0.755857
2224.818,0.754907
2226.973,0.751685
2229.132,0.750408
2231.295,0.7481859
2233.462,0.745441
2235.634,0.742277
2237.809,0.740061
2239.989,0.738829
2242.173,0.7368
2244.361,0.735953
2246.554,0.734618
2248.75,0.7333875
2250.951,0.73133
2253.156,0.728694
2255.365,0.727122
2257.579,0.726426
2259.797,0.724971
2262.019,0.7221776
2264.246,0.719033
2266.477,0.715471
2268.712,0.712722
2270.951,0.711666
2273.195,0.711415
2275.444,0.710084
2277.696,0.709277
2279.954,0.708004
2282.215,0.707778
2284.481,0.707571
2286.752,0.704968
2289.026,0.703126
2291.306,0.701647
2293.59,0.698981
2295.878,0.697134
2298.171,0.695317
2300.468,0.692176
2302.77,0.68958
2305.077,0.68684
2307.388,0.685046
2309.703,0.683141
2312.024,0.680335
2314.348,0.676922
2316.678,0.674369
2319.012,0.671174
2321.351,0.668929
2323.694,0.66727
2326.042,0.667097
2328.395,0.668445
2330.753,0.668065
2333.115,0.666276
2335.482,0.665825
2337.854,0.668174
2340.23,0.671458
2342.611,0.674916
2344.997,0.679178
2347.388,0.6825275
2349.784,0.684257
2352.184,0.684511
2354.59,0.684488
2357.0,0.684904
2359.415,0.684926
2361.835,0.684562
2364.26,0.68121
2366.69,0.680856
2369.125,0.679729
2371.564,0.678472
2374.009,0.677486
2376.459,0.676938
2378.913,0.676005
2381.373,0.675753
2383.838,0.67588
2386.308,0.6752792
2388.783,0.673645
2391.263,0.673393
2393.748,0.671997
2396.238,0.671415
2398.733,0.670653
2401.233,0.669347
2403.739,0.669057
2406.25,0.668334
2408.766,0.668428
2411.287,0.668038
2413.813,0.667227
2416.345,0.6668889
2418.882,0.666074
2421.424,0.66588
2423.971,0.664765
2426.524,0.664134
2429.082,0.662054
2431.646,0.660655
2434.214,0.659674
2436.789,0.657607
2439.368,0.658455
2441.953,0.659305
2444.543,0.660391
2447.139,0.6605422
2449.74,0.661111
2452.347,0.659983
2454.959,0.660042
2457.577,0.659868
2460.2,0.6583862
2462.829,0.656922
2465.464,0.655694
2468.104,0.654655
2470.749,0.653548
2473.4,0.65079
2476.057,0.647905
2478.72,0.646411
2481.388,0.645631
2484.062,0.645388
2486.741,0.647412
2489.427,0.647258
2492.118,0.645649
2494.814,0.643704
2497.517,0.6408603
2500.225,0.638808
2502.939,0.638237
2505.659,0.637494
2508.385,0.637099
2511.117,0.638875
2513.855,0.641887
2516.598,0.642888
2519.348,0.642867
2522.103,0.645918
2524.865,0.64732
2527.632,0.646661
2530.406,0.652734
2533.185,0.655322
2535.971,0.654135
2538.762,0.647233
2541.56,0.65739
2544.364,0.65707
2547.174,0.656941
2549.99,0.660383
2552.812,0.66131
2555.64,0.643128
2558.475,0.655925
2561.316,0.704316
2564.163,0.687273
2567.016,0.662535
2569.876,0.676325
2572.742,0.685854
2575.615,0.68613
2578.493,0.6707689
2581.378,0.6879912
2584.27,0.70514
2587.168,0.692594
2590.072,0.671871
2592.983,0.7432988
2595.9,0.758667
2598.824,0.6634574
2601.755,0.684656
2604.692,0.7273
2607.635,0.700454
2610.585,0.674285
2613.542,0.674468
2616.505,0.7130788
2619.475,0.711589
2622.452,0.669259
2625.435,0.677879
2628.426,0.703963
2631.423,0.704029
2634.426,0.665158
2637.437,0.646296
2640.454,0.648625
2643.478,0.6535694
2646.509,0.652182
2649.547,0.6416471
2652.592,0.660333
2655.644,0.650727
2658.703,0.6527319
2661.768,0.660414
2664.841,0.721665
2667.921,0.741606
2671.008,0.724138
2674.102,0.6619022
2677.203,0.699208
2680.311,0.637778
2683.426,0.602056
2686.549,0.574639
2689.679,0.52811
2692.816,0.5139253
2695.96,0.444807
2699.112,0.341493
2702.27,0.307706
2705.437,0.2761722
2708.61,0.2672253
2711.791,0.261943
2714.98,0.24316
2718.175,0.280719
2721.379,0.3365722
2724.589,0.332197
2727.808,0.301316
2731.034,0.295868
2734.267,0.312311
2737.508,0.327824
2740.757,0.364069
2744.013,0.319355
2747.277,0.312774
2750.549,0.323143
2753.828,0.358796
2757.115,0.371959
2760.41,0.34341
2763.713,0.36466
2767.024,0.3591422
2770.342,0.368195
2773.669,0.354619
2777.003,0.351195
2780.345,0.360083
2783.696,0.36375
2787.054,0.385735
2790.42,0.36901
2793.795,0.3564502
2797.178,0.357612
2800.568,0.371945
2803.967,0.405136
2807.374,0.380209
2810.789,0.373688
2814.213,0.380709
2817.645,0.3899
2821.085,0.399174
2824.533,0.388762
2827.99,0.3924516
2831.455,0.396106
2834.929,0.40698
2838.411,0.409323
2841.902,0.401677
2845.401,0.400766
2848.909,0.407349
2852.425,0.409407
2855.95,0.411864
2859.484,0.405351
2863.026,0.4047711
2866.577,0.406428
2870.137,0.408327
2873.705,0.408605
2877.283,0.404678
2880.869,0.403972
2884.464,0.404034
2888.068,0.404836
2891.681,0.403449
2895.303,0.401796
2898.934,0.402852
2902.574,0.406347
2906.223,0.402557
2909.881,0.400648
2913.549,0.3994185
2917.225,0.39822
2920.911,0.397196
2924.606,0.39772
2928.31,0.394761
2932.024,0.39414
2935.747,0.393575
2939.479,0.392897
2943.221,0.392545
2946.973,0.3927689
2950.733,0.391426
2954.504,0.390455
2958.284,0.389776
2962.073,0.38913
2965.873,0.389228
2969.681,0.390656
2973.5,0.39046
2977.328,0.390491
2981.167,0.390098
2985.015,0.389809
2988.873,0.390763
2992.74,0.3898535
2996.618,0.390135
3000.506,0.390556
3004.404,0.390284
3008.312,0.390546
3012.23,0.389802
3016.158,0.390028
3020.096,0.390682
3024.044,0.390655
3028.003,0.390312
3031.972,0.391092
3035.952,0.3913023
3039.942,0.3910501
3043.942,0.391011
3047.953,0.391355
3051.974,0.3918957
3056.006,0.3921567
3060.048,0.391461
3064.101,0.391682
3068.165,0.391728
3072.239,0.392804
3076.325,0.392258
3080.421,0.39226
3084.527,0.393186
3088.645,0.39288
3092.774,0.393626
3096.914,0.394035
3101.064,0.393908
3105.226,0.39427
3109.399,0.394153
3113.583,0.394588
3117.778,0.394417
3121.985,0.394005
3126.202,0.393898
3130.431,0.393647
3134.672,0.392906
3138.924,0.39259
3143.187,0.392455
3147.462,0.392684
3151.749,0.392164
3156.047,0.391915
3160.357,0.391763
3164.678,0.391282
3169.011,0.390764
3173.356,0.390587
3177.713,0.390414
3182.082,0.390334
3186.463,0.389765
3190.856,0.3897481
3195.26,0.390142
3199.677,0.390283
3204.106,0.390574
3208.548,0.390338
3213.001,0.389947
3217.467,0.389511
3221.945,0.388456
3226.436,0.387924
3230.939,0.386972
3235.455,0.386242
3239.983,0.385494
3244.523,0.3855095
3249.077,0.385745
3253.643,0.385678
3258.222,0.385241
3262.814,0.384849
3267.418,0.38453
3272.036,0.384621
3276.667,0.383995
3281.31,0.383932
3285.967,0.383794
3290.637,0.384146
3295.32,0.3849081
3300.016,0.384951
3304.726,0.38425
3309.449,0.3838552
3314.185,0.384279
3318.936,0.384557
3323.699,0.384679
3328.476,0.385323
3333.267,0.385135
3338.072,0.385124
3342.89,0.3859936
3347.722,0.386692
3352.569,0.387301
3357.429,0.387878
3362.303,0.3888904
3367.191,0.3893547
3372.093,0.389688
3377.01,0.389841
3381.941,0.389399
3386.886,0.38907
3391.846,0.388886
3396.82,0.3886901
3401.809,0.3881
3406.812,0.386996
3411.83,0.385228
3416.862,0.384828
3421.91,0.386559
3426.972,0.389822
3432.049,0.392909
3437.141,0.394681
3442.249,0.396583
3447.371,0.397829
3452.509,0.398168
3457.661,0.399696
3462.829,0.401027
3468.013,0.401939
3473.212,0.402677
3478.426,0.4040849
3483.656,0.405509
3488.902,0.406921
3494.164,0.408065
3499.441,0.408112
3504.734,0.409768
3510.043,0.413788
3515.368,0.416972
3520.71,0.419345
3526.067,0.421909
3531.441,0.424093
3536.831,0.426017
3542.237,0.427593
3547.66,0.429249
3553.099,0.430938
3558.555,0.43294
3564.028,0.434985
3569.518,0.436606
3575.024,0.4381326
3580.547,0.4396432
3586.088,0.441863
3591.645,0.443683
3597.22,0.4455651
3602.811,0.44684
3608.421,0.448421
3614.047,0.450456
3619.691,0.452271
3625.353,0.453687
3631.032,0.455397
3636.729,0.457293
3642.444,0.459178
3648.176,0.461431
3653.927,0.463203
3659.696,0.465155
3665.483,0.46678
3671.288,0.468724
3677.111,0.470766
3682.953,0.472942
3688.814,0.474248
3694.693,0.475978
3700.59,0.478189
3706.507,0.480594
3712.442,0.482964
3718.396,0.484924
3724.37,0.486841
3730.362,0.488053
3736.374,0.489639
3742.405,0.491212
3748.455,0.492806
3754.525,0.4941891
3760.614,0.495423
3766.724,0.496752
3772.853,0.498426
3779.001,0.499742
3785.17,0.50109
3791.359,0.502094
3797.568,0.502859
3803.798,0.503862
3810.048,0.505197
3816.318,0.506307
3822.609,0.507716
3828.92,0.509333
3835.252,0.5107425
3841.606,0.511789
3847.98,0.512396
3854.375,0.512885
3860.792,0.512999
3867.229,0.513728
3873.689,0.514351
3880.169,0.514472
3886.672,0.515376
3893.196,0.516566
3899.742,0.517105
3906.31,0.517495
3912.9,0.5179886
3919.512,0.5182721
3926.146,0.518874
3932.803,0.519546
3939.482,0.520082
3946.184,0.5207199
3952.909,0.521181
3959.657,0.521715
3966.427,0.522692
3973.221,0.523463
3980.038,0.5247352
3986.878,0.526047
3993.742,0.526994
4000.629,0.527733
4007.54,0.528618
4014.475,0.529523
4021.433,0.5305551
4028.416,0.531645
4035.423,0.532784
4042.454,0.5339532
4049.51,0.535008
4056.59,0.53567
4063.695,0.5363431
4070.825,0.537338
4077.98,0.53803
4085.16,0.538914
4092.365,0.539549
4099.596,0.5401042
4106.852,0.540707
4114.133,0.541534
4121.441,0.542273
4128.774,0.543253
4136.133,0.5441395
4143.519,0.544898
4150.931,0.546026
4158.369,0.547322
4165.834,0.548706
4173.326,0.550353
4180.844,0.551726
4188.39,0.554325
4195.963,0.56355
4203.563,0.587882
4211.19,0.637282
4218.846,0.710818
4226.529,0.7974538
4234.24,0.858754
4241.979,0.845629
4249.746,0.747636
4257.542,0.657297
4265.366,0.694998
4273.219,0.742765
4281.1,0.740373
4289.011,0.731148
4296.951,0.7106432
4304.92,0.687472
4312.919,0.660378
4320.948,0.634523
4329.006,0.6173162
4337.095,0.603179
4345.213,0.594369
4353.362,0.589304
4361.541,0.585649
4369.751,0.583448
4377.992,0.581819
4386.264,0.582951
4394.567,0.584355
4402.902,0.585397
4411.268,0.585041
4419.666,0.585251
4428.096,0.586308
4436.558,0.587585
4445.052,0.58734
4453.579,0.586711
4462.138,0.587106
4470.73,0.587297
4479.355,0.588773
4488.014,0.58887
4496.706,0.588734
4505.431,0.589001
4514.191,0.588913
4522.984,0.5889941
4531.812,0.589056
4540.674,0.588994
4549.57,0.589326
4558.502,0.589342
4567.468,0.589423
4576.47,0.590343
4585.507,0.589709
4594.58,0.5885
4603.688,0.58972
4612.833,0.589246
4622.014,0.589354
4631.231,0.590964
4640.485,0.592135
4649.777,0.592407
4659.105,0.593517
4668.471,0.593853
4677.874,0.595422
4687.315,0.593878
4696.794,0.5968697
4706.312,0.597879
4715.868,0.597538
4725.463,0.5977224
4735.096,0.5988632
4744.769,0.599564
4754.482,0.600042
4764.234,0.600844
4774.026,0.601213
4783.859,0.60099
4793.732,0.599738
4803.645,0.599001
4813.6,0.598836
4823.596,0.598155
4833.633,0.598743
4843.712,0.598331
4853.833,0.595973
4863.996,0.591761
4874.202,0.585622
4884.451,0.5793599
4894.742,0.573316
4905.077,0.567509
4915.456,0.562943
4925.878,0.559191
4936.345,0.556026
4946.856,0.55744
4957.412,0.5607661
4968.013,0.569241
4978.659,0.569102
4989.351,0.569681
5000.088,0.572459
5010.872,0.57583
5021.703,0.580231
5032.58,0.580138
5043.504,0.580821
5054.475,0.5822321
5065.495,0.583306
5076.562,0.58521
5087.678,0.5861989
5098.842,0.584809
5110.055,0.58506
5121.318,0.584884
5132.63,0.58517
5143.992,0.588446
5155.405,0.586271
5166.868,0.5836933
5178.382,0.58322
5189.947,0.583242
5201.564,0.585932
5213.233,0.587898
5224.954,0.58426
5236.728,0.586912
5248.555,0.587301
5260.436,0.588757
5272.37,0.592378
5284.358,0.596247
5296.401,0.597882
5308.499,0.595636
5320.652,0.596845
5332.86,0.598042
5345.125,0.608226
5357.446,0.607276
5369.824,0.600988
5382.259,0.603454
5394.751,0.607508
5407.302,0.619677
5419.911,0.64961
5432.579,0.661986
5445.305,0.699619
5458.092,0.796006
5470.939,0.984533
5483.846,0.0134793
5496.814,0.0252128
5509.843,0.0195253
5522.934,0.722842
5536.087,0.3420872
5549.303,0.166451
5562.582,0.08987387
5575.925,0.07442106
5589.332,0.08811019
5602.803,0.11296
5616.339,0.136004
5629.94,0.155337
5643.607,0.171264
5657.341,0.189499
5671.142,0.203867
5685.01,0.217209
5698.945,0.228495
5712.949,0.237703
5727.022,0.249802
5741.165,0.258209
5755.377,0.264375
5769.659,0.270455
5784.012,0.283665
5798.437,0.291371
5812.934,0.293936
5827.503,0.2988819
5842.146,0.3098714
5856.862,0.314717
5871.652,0.316133
5886.517,0.317911
5901.457,0.327803
5916.473,0.335049
5931.565,0.333687
5946.735,0.339946
5961.982,0.343853
5977.307,0.346919
5992.711,0.350467
6008.195,0.354073
6023.759,0.359064
6039.403,0.356699
6055.129,0.359703
6070.936,0.367607
6086.826,0.373395
6102.8,0.37415
6118.857,0.376129
6134.999,0.382605
6151.226,0.3849817
6167.539,0.388883
6183.938,0.391875
6200.425,0.401362
6217.0,0.4075
6233.663,0.413055
6250.416,0.418355
6267.259,0.423407
6284.193,0.428242
6301.218,0.432685
6318.336,0.436935
6335.546,0.437716
6352.851,0.442578
6370.25,0.447462
6387.745,0.451575
6405.335,0.448797
6423.023,0.454629
6440.809,0.462888
6458.693,0.466944
6476.676,0.467553
6494.76,0.469907
6512.945,0.479599
6531.231,0.48507
6549.621,0.489158
6568.114,0.492037
6586.712,0.49895
6605.415,0.504133
6624.224,0.505257
6643.141,0.506774
6662.166,0.512725
6681.3,0.514949
6700.544,0.519728
6719.899,0.5226692
6739.365,0.524778
6758.945,0.527889
6778.639,0.529625
6798.448,0.530969
6818.372,0.533609
6838.413,0.536293
6858.573,0.538818
6878.851,0.542495
6899.25,0.545299
6919.769,0.547842
6940.411,0.551476
6961.176,0.555148
6982.066,0.558625
7003.081,0.561896
7024.223,0.565665
7045.492,0.569549
7066.891,0.57206
7088.419,0.575334
7110.079,0.578963
7131.872,0.583208
7153.799,0.588643
7175.86,0.592815
7198.058,0.597813
7220.393,0.601532
7242.867,0.606955
7265.481,0.612193
7288.237,0.615758
7311.135,0.6200379
7334.178,0.62476
7357.366,0.627208
7380.701,0.630566
7404.184,0.634235
7427.817,0.638352
7451.601,0.644554
7475.537,0.648379
7499.628,0.6514957
7523.874,0.65518
7548.277,0.659246
7572.838,0.663448
7597.56,0.667202
7622.444,0.670589
7647.491,0.674181
7672.702,0.677627
7698.08,0.680919
7723.627,0.684122
7749.343,0.687358
7775.231,0.690211
7801.292,0.6935286
7827.529,0.69676
7853.942,0.699555
7880.533,0.701462
7907.305,0.703841
7934.26,0.70737
7961.398,0.71085
7988.723,0.71459
8016.235,0.718634
8043.937,0.722105
8071.832,0.724995
8099.92,0.727188
8128.204,0.729543
8156.686,0.731946
8185.368,0.734146
8214.252,0.736264
8243.34,0.738277
8272.635,0.740041
8302.139,0.741631
8331.853,0.743525
8361.781,0.745477
8391.924,0.747764
8422.285,0.749632
8452.866,0.750689
8483.67,0.752187
8514.699,0.7542788
8545.955,0.75635
8577.442,0.758526
8609.161,0.760672
8641.115,0.763128
8673.307,0.764979
8705.739,0.766966
8738.415,0.769264
8771.336,0.7714768
8804.507,0.773472
8837.928,0.775638
8871.604,0.778075
8905.538,0.779462
8939.732,0.780862
8974.189,0.782363
9008.912,0.783757
9043.905,0.784692
9079.17,0.785333
9114.711,0.785795
9150.531,0.786351
9186.634,0.786327
9223.022,0.787021
9259.699,0.788297
9296.669,0.789914
9333.935,0.791718
9371.5,0.794036
9409.369,0.796188
9447.545,0.798372
9486.031,0.801013
9524.832,0.803759
9563.951,0.806241
9603.393,0.808577
9643.16,0.8110159
9683.259,0.813311
9723.691,0.815517
9764.463,0.818069
9805.577,0.820909
9847.039,0.824036
9888.853,0.826804
9931.022,0.82953
9973.553,0.832186
10016.449,0.834787
10059.715,0.837383
10103.357,0.839509
10147.378,0.841083
10191.784,0.842382
10236.58,0.84383
10281.771,0.845191
10327.363,0.846423
10373.36,0.847647
10419.769,0.848992
10466.594,0.850233
10513.842,0.851366
10561.517,0.851982
10609.627,0.852437
10658.176,0.8525
10707.172,0.852307
10756.619,0.8518
10806.525,0.851221
10856.896,0.85081
10907.738,0.850078
10959.058,0.849211
11010.863,0.848357
11063.16,0.847082
11115.955,0.846015
11169.256,0.844924
11223.07,0.843636
11277.405,0.842809
11332.268,0.842337
11387.667,0.842191
11443.61,0.84202
11500.105,0.842002
11557.16,0.841785
11614.783,0.841583
11672.983,0.842034
11731.769,0.841819
11791.15,0.8412197
11851.134,0.841521
11911.731,0.842043
11972.951,0.841883
12034.802,0.8411778
12097.296,0.840112
12160.441,0.83905
12224.249,0.839079
12288.729,0.839013
12353.892,0.838355
12419.75,0.8387268
12486.313,0.839357
12553.593,0.839964
12621.601,0.840597
12690.349,0.841188
12759.85,0.842084
12830.116,0.842032
12901.159,0.841651
12972.993,0.8408711
13045.631,0.839672
13119.087,0.837722
13193.373,0.835595
13268.505,0.833656
13344.497,0.831374
13421.364,0.829391
13499.121,0.826797
13577.783,0.825522
13657.367,0.823203
13737.889,0.819132
13819.365,0.815918
13901.813,0.811742
13985.25,0.80588
14069.694,0.79948
14155.163,0.791781
14241.676,0.782212
14329.252,0.771202
14417.911,0.757442
14507.674,0.74199
14598.561,0.722188
14690.592,0.696774
14783.791,0.667489
14878.179,0.6335921
14973.78,0.590237
15070.616,0.549162
15168.712,0.490848
15268.092,0.425588
15368.783,0.358386
15470.81,0.29707
15574.199,0.242809
15678.979,0.199445
15785.178,0.167068
15892.824,0.142461
15965.407,0.130415