File: csv_library/FTIR_PLG_01.csv
Database of Origin,University of Winnipeg Spectrophotometer Facility
Sample Description,IR Reflectance spectra of plagioclase with a Bruker Vertex 70 FTIR. See Master Plagioclase in PSF database for additional info.
Date Added,2016-11-22 04:00:06.256403

Data ID,FTIR_PLG_01
Sample ID,PLG106
Mineral Name,Plagioclase
Grain Size,<45 um
Viewing Geometry,"i30, e0"
Resolution,7.71cm-1
Material Class,Tectosilicate

Wavelength
1670.16,0.55635
1672.32,0.55619
1674.48,0.55583
1676.64,0.55548
1678.81,0.55521
1680.99,0.55517
1683.18,0.55545
1685.36,0.5555
1687.56,0.55506
1689.76,0.55514
1691.96,0.55547
1694.18,0.55542
1696.39,0.55504
1698.62,0.55445
1700.85,0.55462
1703.08,0.55508
1705.32,0.55468
1707.57,0.55414
1709.82,0.55406
1712.08,0.55424
1714.35,0.55465
1716.62,0.5549
1718.89,0.5544
1721.18,0.55402
1723.46,0.55405
1725.76,0.55393
1728.06,0.55388
1730.37,0.5539
1732.68,0.55385
1735,0.55387
1737.33,0.55377
1739.66,0.55343
1742,0.55306
1744.34,0.55295
1746.69,0.55315
1749.05,0.55344
1751.41,0.55371
1753.78,0.55374
1756.16,0.5533
1758.54,0.55277
1760.93,0.55245
1763.33,0.55244
1765.73,0.55239
1768.14,0.55195
1770.55,0.55174
1772.98,0.55187
1775.4,0.55162
1777.84,0.55118
1780.28,0.55099
1782.73,0.55104
1785.19,0.55115
1787.65,0.55124
1790.12,0.55133
1792.59,0.55118
1795.08,0.55102
1797.57,0.55105
1800.06,0.55107
1802.57,0.55111
1805.08,0.55122
1807.59,0.5514
1810.12,0.55163
1812.65,0.55181
1815.19,0.552
1817.73,0.553
1820.29,0.55387
1822.85,0.55327
1825.42,0.55348
1827.99,0.55438
1830.57,0.55419
1833.16,0.5548
1835.76,0.55727
1838.36,0.55877
1840.97,0.5572
1843.59,0.55497
1846.22,0.55554
1848.85,0.55512
1851.49,0.55332
1854.14,0.55352
1856.8,0.55368
1859.46,0.55254
1862.13,0.55023
1864.81,0.54993
1867.5,0.55333
1870.19,0.55705
1872.9,0.55649
1875.61,0.55164
1878.33,0.54651
1881.05,0.54428
1883.79,0.54407
1886.53,0.54374
1889.28,0.54378
1892.04,0.54331
1894.8,0.54248
1897.58,0.54362
1900.36,0.5449
1903.15,0.54479
1905.95,0.54308
1908.76,0.54019
1911.57,0.53903
1914.39,0.53848
1917.23,0.53784
1920.07,0.53754
1922.92,0.53583
1925.77,0.53406
1928.64,0.53309
1931.51,0.53222
1934.4,0.53184
1937.29,0.53165
1940.19,0.53115
1943.1,0.53071
1946.01,0.53036
1948.94,0.52971
1951.88,0.52929
1954.82,0.52907
1957.77,0.52863
1960.73,0.52802
1963.7,0.52734
1966.68,0.52684
1969.67,0.52664
1972.67,0.5264
1975.68,0.52592
1978.69,0.52547
1981.72,0.52504
1984.76,0.52455
1987.8,0.52409
1990.85,0.52362
1993.92,0.52327
1996.99,0.52318
2000.07,0.52287
2003.16,0.52222
2006.26,0.52178
2009.37,0.52145
2012.49,0.52104
2015.62,0.52064
2018.76,0.52022
2021.91,0.5197
2025.07,0.51903
2028.24,0.51853
2031.42,0.51819
2034.61,0.51773
2037.81,0.51724
2041.02,0.51681
2044.24,0.51599
2047.46,0.51495
2050.7,0.51437
2053.95,0.51412
2057.21,0.51377
2060.48,0.51324
2063.77,0.51232
2067.06,0.51123
2070.36,0.51057
2073.67,0.51
2077,0.50928
2080.33,0.5088
2083.67,0.50848
2087.03,0.50807
2090.4,0.50753
2093.77,0.5067
2097.16,0.5059
2100.56,0.50523
2103.97,0.50441
2107.39,0.50373
2110.82,0.50329
2114.27,0.50283
2117.72,0.50214
2121.19,0.50133
2124.66,0.50058
2128.15,0.4999
2131.65,0.49916
2135.16,0.49831
2138.69,0.49759
2142.22,0.49703
2145.77,0.49634
2149.33,0.49542
2152.9,0.49459
2156.48,0.49418
2160.08,0.49379
2163.68,0.49285
2167.3,0.49167
2170.93,0.49076
2174.57,0.49004
2178.23,0.4893
2181.89,0.48865
2185.57,0.48811
2189.27,0.48749
2192.97,0.48675
2196.69,0.48606
2200.42,0.48554
2204.16,0.48499
2207.91,0.48437
2211.68,0.48369
2215.46,0.48302
2219.26,0.4823
2223.06,0.48137
2226.88,0.48065
2230.71,0.48022
2234.56,0.47974
2238.42,0.47905
2242.29,0.47836
2246.18,0.47783
2250.08,0.47726
2253.99,0.4766
2257.92,0.47612
2261.86,0.47566
2265.813,0.47475
2269.78,0.47373
2273.76,0.47297
2277.76,0.47197
2281.77,0.47024
2285.79,0.46808
2289.83,0.46656
2293.89,0.4662
2297.95,0.46591
2302.03,0.46472
2306.13,0.46259
2310.24,0.46036
2314.37,0.4599
2318.51,0.4617
2322.66,0.46399
2326.83,0.46565
2331.02,0.46663
2335.22,0.46729
2339.43,0.4679
2343.66,0.46828
2347.91,0.46824
2352.17,0.46797
2356.45,0.46803
2360.74,0.46835
2365.05,0.46849
2369.37,0.46821
2373.71,0.46759
2378.06,0.46704
2382.44,0.46669
2386.82,0.46649
2391.23,0.4668
2395.65,0.46778
2400.08,0.46901
2404.54,0.47003
2409.01,0.47071
2413.49,0.47125
2417.99,0.4716
2422.51,0.47178
2427.05,0.47217
2431.6,0.47284
2436.17,0.4734
2440.76,0.47379
2445.37,0.47444
2449.99,0.47518
2454.63,0.47574
2459.29,0.47627
2463.96,0.47683
2468.66,0.47765
2473.37,0.47872
2478.1,0.47997
2482.84,0.48153
2487.61,0.4829
2492.39,0.48381
2497.2,0.48456
2502.02,0.48564
2506.86,0.48698
2511.72,0.48832
2516.59,0.48963
2521.49,0.491
2526.4,0.4932
2531.34,0.49606
2536.29,0.49826
2541.26,0.50082
2546.26,0.50393
2551.27,0.5052
2556.3,0.50825
2561.35,0.51532
2566.43,0.51909
2571.52,0.52034
2576.63,0.52397
2581.76,0.5295
2586.92,0.53405
2592.09,0.53612
2597.28,0.53715
2602.5,0.53995
2607.74,0.54117
2612.99,0.54077
2618.27,0.53974
2623.57,0.53733
2628.89,0.53666
2634.24,0.52969
2639.6,0.52308
2644.99,0.5231
2650.4,0.52626
2655.83,0.53294
2661.28,0.54524
2666.76,0.55716
2672.26,0.55526
2677.779,0.54052
2683.32,0.52171
2688.89,0.50718
2694.48,0.4923
2700.09,0.47213
2705.73,0.44919
2711.39,0.41265
2717.08,0.37384
2722.78,0.36495
2728.52,0.37483
2734.27,0.38305
2740.05,0.38511
2745.86,0.37522
2751.69,0.36812
2757.54,0.36471
2763.42,0.3592
2769.327,0.35108
2775.26,0.34387
2781.21,0.33991
2787.19,0.33628
2793.2,0.33324
2799.23,0.33394
2805.29,0.3344
2811.38,0.33214
2817.49,0.33042
2823.63,0.3288
2829.79,0.32774
2835.98,0.32656
2842.2,0.32399
2848.45,0.3223
2854.72,0.321
2861.03,0.319
2867.36,0.31713
2873.71,0.31518
2880.1,0.31343
2886.51,0.31223
2892.96,0.31144
2899.43,0.31114
2905.93,0.31037
2912.46,0.30909
2919.02,0.30832
2925.61,0.30761
2932.23,0.30694
2938.88,0.30707
2945.56,0.30754
2952.27,0.30768
2959.01,0.30777
2965.78,0.3082
2972.58,0.30901
2979.41,0.30996
2986.28,0.31121
2993.18,0.31293
3000.1,0.31468
3007.07,0.31613
3014.06,0.31753
3021.084,0.31895
3028.14,0.32034
3035.23,0.32187
3042.36,0.32332
3049.52,0.32443
3056.71,0.3254
3063.94,0.32647
3071.2,0.32776
3078.49,0.32916
3085.82,0.33051
3093.19,0.33176
3100.59,0.33336
3108.02,0.3355
3115.49,0.33773
3123,0.33991
3130.54,0.34206
3138.12,0.34423
3145.74,0.34658
3153.39,0.34902
3161.09,0.35154
3168.81,0.35413
3176.58,0.35664
3184.39,0.35915
3192.23,0.36184
3200.11,0.3645
3208.03,0.36701
3215.99,0.36939
3223.99,0.37168
3232.03,0.37373
3240.11,0.37569
3248.23,0.37787
3256.39,0.38013
3264.6,0.38221
3272.84,0.38388
3281.13,0.38524
3289.45,0.38661
3297.82,0.38783
3306.24,0.38869
3314.69,0.38951
3323.19,0.38952
3331.74,0.38747
3340.32,0.38364
3348.95,0.38024
3357.63,0.37879
3366.35,0.37816
3375.12,0.37785
3383.93,0.37848
3392.79,0.37902
3401.69,0.37795
3410.64,0.37631
3419.64,0.37746
3428.69,0.38239
3437.79,0.38788
3446.93,0.39126
3456.12,0.39205
3465.36,0.39034
3474.65,0.38813
3483.99,0.3881
3493.38,0.39039
3502.82,0.39526
3512.32,0.40386
3521.86,0.41406
3531.46,0.42244
3541.11,0.42815
3550.81,0.43206
3560.56,0.43484
3570.37,0.4371
3580.23,0.43927
3590.15,0.44132
3600.13,0.44311
3610.15,0.44468
3620.24,0.44615
3630.38,0.44759
3640.58,0.44895
3650.83,0.45021
3661.14,0.45149
3671.52,0.45275
3681.95,0.45392
3692.44,0.4551
3702.99,0.45619
3713.6,0.45696
3724.27,0.45757
3735,0.45827
3745.79,0.45905
3756.65,0.4596
3767.57,0.45966
3778.56,0.45898
3789.61,0.4571
3800.72,0.45388
3811.9,0.44995
3823.14,0.44593
3834.45,0.4422
3845.83,0.43928
3857.28,0.43743
3868.79,0.43646
3880.37,0.43576
3892.03,0.43473
3903.75,0.43307
3915.54,0.43058
3927.41,0.42624
3939.35,0.41811
3951.36,0.40673
3963.44,0.39692
3975.6,0.39354
3987.83,0.39862
4000.14,0.41045
4012.52,0.42424
4024.98,0.43651
4037.52,0.44635
4050.14,0.45327
4062.84,0.4574
4075.61,0.45954
4088.47,0.46055
4101.41,0.461
4114.43,0.46124
4127.53,0.46124
4140.72,0.46098
4153.99,0.46065
4167.35,0.46029
4180.79,0.46072
4194.32,0.46559
4207.94,0.47938
4221.65,0.49831
4235.44,0.50518
4249.33,0.49621
4263.31,0.49109
4277.38,0.4928
4291.54,0.48885
4305.8,0.47789
4320.15,0.46611
4334.6,0.45758
4349.14,0.45265
4363.79,0.44972
4378.53,0.44784
4393.37,0.44666
4408.32,0.44576
4423.36,0.44471
4438.51,0.44309
4453.76,0.44105
4469.12,0.43887
4484.58,0.43628
4500.16,0.43256
4515.84,0.42683
4531.626,0.41916
4547.53,0.41087
4563.54,0.40289
4579.66,0.39442
4595.9,0.38556
4612.26,0.37731
4628.73,0.36939
4645.32,0.36181
4662.03,0.35549
4678.86,0.34903
4695.82,0.34052
4712.89,0.32982
4730.09,0.31899
4747.42,0.31109
4764.87,0.30664
4782.45,0.30266
4800.17,0.29657
4818.01,0.28853
4835.99,0.28024
4854.1,0.27228
4872.35,0.26531
4890.74,0.26063
4909.26,0.25749
4927.93,0.25421
4946.74,0.2513
4965.69,0.24914
4984.79,0.24621
5004.03,0.24004
5023.43,0.22843
5042.98,0.2144
5062.68,0.20557
5082.53,0.20695
5102.54,0.21732
5122.71,0.23131
5143.04,0.24405
5163.53,0.25351
5184.18,0.26086
5205,0.26621
5225.99,0.26726
5247.15,0.26514
5268.48,0.26353
5289.98,0.26412
5311.66,0.26625
5333.52,0.26977
5355.56,0.27284
5377.78,0.27489
5400.19,0.28034
5422.78,0.29043
5445.57,0.30164
5468.54,0.31111
5491.72,0.31509
5515.09,0.31346
5538.65,0.30679
5562.43,0.30142
5586.4,0.30681
5610.58,0.31914
5634.98,0.32823
5659.59,0.3281
5684.41,0.32436
5709.45,0.3228
5734.71,0.31931
5760.2,0.30899
5785.92,0.29533
5811.86,0.28535
5838.04,0.27827
5864.46,0.27364
5891.11,0.26499
5918.01,0.24802
5945.16,0.22513
5972.56,0.20036
6000.21,0.18095
6028.12,0.17065
6056.29,0.16466
6084.72,0.15851
6113.42,0.15685
6142.39,0.15994
6171.64,0.16276
6201.17,0.16122
6230.99,0.15676
6261.09,0.15207
6291.48,0.14849
6322.17,0.14636
6353.16,0.14291
6384.46,0.13651
6416.06,0.1271
6447.99,0.1184
6480.23,0.11333
6512.79,0.10837
6545.68,0.10456
6578.91,0.10113
6612.47,0.09591
6646.38,0.08989
6680.64,0.08551
6715.26,0.0828
6750.23,0.08082
6785.58,0.07947
6821.29,0.07929
6857.38,0.08005
6893.86,0.0804
6930.72,0.08099
6967.98,0.08251
7005.65,0.08432
7043.72,0.08588
7082.21,0.08685
7121.13,0.08835
7160.47,0.09098
7200.25,0.09416
7240.48,0.09803
7281.15,0.10319
7322.29,0.10847
7363.89,0.11167
7405.97,0.1121
7448.53,0.11054
7491.59,0.10721
7535.15,0.10343
7579.21,0.09996
7623.79,0.09598
7668.91,0.09098
7714.55,0.08537
7760.75,0.07955
7807.5,0.07397
7854.82,0.06889
7902.71,0.06346
7951.2,0.057
8000.28,0.0504
8049.97,0.04458
8100.28,0.03952
8151.23,0.03497
8202.82,0.03081
8255.06,0.02697
8307.98,0.02361
8361.58,0.02093
8415.88,0.01909
8470.88,0.01836
8526.61,0.0189
8583.08,0.02118
8640.3,0.02611
8698.29,0.03421
8757.06,0.04446
8816.63,0.0541
8877.02,0.06049
8938.24,0.06188
9000.31,0.05914
9063.25,0.05589
9127.08,0.05369
9191.81,0.0519
9257.46,0.05028
9324.07,0.04791
9391.63,0.04282
9460.18,0.0354
9529.74,0.02886
9600.33,0.02529
9671.98,0.02406
9744.7,0.02416
9818.52,0.02484
9893.47,0.02492
9969.58,0.02372
10046.9,0.0236
10125.4,0.0282
10205.1,0.0371
10286.1,0.04622
10368.4,0.05217
10452,0.0543
10537,0.0547
10623.3,0.05423
10711.1,0.05407
10800.4,0.05607
10891.1,0.05828
10983.4,0.05907
11077.3,0.0593
11172.8,0.05925
11270,0.05911
11368.8,0.05885
11469.4,0.05831
11571.8,0.05733
11676.1,0.05526
11782.2,0.05313
11890.3,0.05338
12000.4,0.05618
12112.6,0.06006
12226.8,0.06407
12343.3,0.06768
12462,0.07036
12583,0.07193
12706.3,0.07338
12832.1,0.07473
12960.5,0.07479
13091.4,0.07427
13224.9,0.07414
13361.3,0.0739
13500.5,0.07273
13642.6,0.06968
13787.7,0.06363
13936,0.05494
14087.4,0.04626
14242.3,0.03864
14400.5,0.03117
14562.3,0.0241
14727.8,0.01929
14897.1,0.01788
15070.3,0.01749
15247.6,0.01575
15429.1,0.01442
15615,0.015
15805.4,0.01589
16000.6,0.0166
16200.6,0.01754
16405.6,0.01876
16616,0.02161
16831.8,0.02783
17053.2,0.03733
17280.6,0.04796
17514.1,0.05684
17754,0.06158
18000.6,0.06145
18254.2,0.05848
18514.9,0.05576
18783.3,0.05382
19059.5,0.05304
19344,0.05443
19637,0.05601
19939.2,0.05561
20250.7,0.05445
20572.1,0.05604
20904,0.05998
21246.6,0.06126
21600.8,0.05824
21966.9,0.05378
22345.6,0.05059
22737.6,0.04885
23143.7,0.04803
23564.5,0.04828
24000.8,0.05022
24453.7,0.04855
24923.9,0.03445
25412.6,0.05756