File: csv_library/FTIR_CARB_39_5.csv
Database of Origin,University of Winnipeg Spectrophotometer Facility
Sample Description,Carbonates and Oxolates -  D&P Spectra Reflectance spectra
Other Information,"Designs and Prototypes 102F spectra/Relative to infragold 1"" disk/Reflectance only"
Date Added,2018-08-06 21:06:09.618237

Data ID,FTIR_CARB_39_5
Sample ID,CRB114
Mineral Name,magnesite
Locality,Currant Creek/ Nevada/ USA
Grain Size,<45 um
Viewing Geometry,i=35/ e=0
Resolution,~3 cm-1
Formula,Mg(CO3)
Composition,Magnesite plus other stuff- probably huntite; some broad and low angle peaks.

Wavelength
2.001142,0.684147
2.003474,0.685425
2.005812,0.68702
2.008155,0.688236
2.010504,0.690325
2.012858,0.691601
2.015217,0.691169
2.017582,0.69301
2.019952,0.69355
2.022328,0.695654
2.024709,0.69603
2.027096,0.696987
2.029488,0.698074
2.031886,0.69838
2.034289,0.697789
2.036698,0.700402
2.039113,0.7009
2.041533,0.7024861
2.043959,0.703606
2.046391,0.703913
2.048828,0.705811
2.051271,0.705219
2.05372,0.706494
2.056175,0.7066
2.058635,0.706783
2.061101,0.707972
2.063573,0.708296
2.066051,0.709434
2.068534,0.7083958
2.071024,0.708327
2.073519,0.707679
2.07602,0.706703
2.078528,0.706182
2.081041,0.705645
2.08356,0.7045797
2.086085,0.703739
2.088617,0.704302
2.091154,0.703503
2.093697,0.704839
2.096247,0.704766
2.098803,0.707016
2.101364,0.709134
2.103932,0.710123
2.106506,0.710351
2.109087,0.712177
2.111673,0.714133
2.114266,0.712467
2.116865,0.71189
2.119471,0.710829
2.122082,0.710545
2.1247,0.710983
2.127325,0.71192
2.129956,0.71195
2.132593,0.714479
2.135237,0.715722
2.137887,0.716146
2.140544,0.716694
2.143207,0.717318
2.145876,0.717992
2.148553,0.719076
2.151235,0.719368
2.153925,0.719866
2.156621,0.72041
2.159324,0.720662
2.162033,0.7192
2.164749,0.719109
2.167472,0.719755
2.170202,0.717955
2.172938,0.71738
2.175682,0.717171
2.178432,0.717552
2.181189,0.71617
2.183952,0.715643
2.186723,0.714548
2.189501,0.715753
2.192285,0.716165
2.195077,0.715121
2.197876,0.715353
2.200682,0.714071
2.203494,0.713675
2.206314,0.713766
2.209141,0.713463
2.211975,0.712053
2.214817,0.710678
2.217665,0.708236
2.220521,0.706293
2.223384,0.704163
2.226254,0.703114
2.229132,0.701063
2.232017,0.698718
2.23491,0.694835
2.237809,0.694153
2.240717,0.69054
2.243631,0.688605
2.246554,0.686141
2.249483,0.682029
2.252421,0.680642
2.255365,0.678648
2.258318,0.676055
2.261278,0.671529
2.264246,0.667913
2.267221,0.6659131
2.270204,0.663713
2.273195,0.662348
2.276194,0.659393
2.279201,0.65583
2.282215,0.6537948
2.285237,0.650833
2.288268,0.6455961
2.291306,0.64146
2.294352,0.640231
2.297406,0.636705
2.300468,0.632913
2.303539,0.627345
2.306617,0.619773
2.309703,0.6115412
2.312798,0.603924
2.315901,0.597228
2.319012,0.59246
2.322131,0.592668
2.325259,0.598857
2.328395,0.605309
2.33154,0.606566
2.334692,0.605976
2.337854,0.605891
2.341023,0.615783
2.344201,0.630168
2.347388,0.642078
2.350583,0.649251
2.353787,0.652555
2.357,0.654551
2.360221,0.654719
2.363451,0.654825
2.36669,0.651484
2.369937,0.648022
2.373194,0.643149
2.376459,0.638216
2.379733,0.634833
2.383016,0.633203
2.386308,0.634215
2.389609,0.634897
2.392919,0.632513
2.396238,0.63092
2.399566,0.629464
2.402903,0.629327
2.40625,0.631362
2.409606,0.628874
2.412971,0.628443
2.416345,0.625652
2.419729,0.620888
2.423122,0.616731
2.426524,0.613013
2.429936,0.611282
2.433358,0.609697
2.436789,0.60934
2.440229,0.608642
2.443679,0.607443
2.447139,0.60396
2.450609,0.603043
2.454088,0.6019
2.457577,0.601558
2.461076,0.600069
2.464585,0.598594
2.468104,0.594702
2.471632,0.5927758
2.475171,0.588434
2.47872,0.585772
2.482278,0.582353
2.485847,0.578946
2.489427,0.576181
2.493016,0.572261
2.496615,0.569269
2.500225,0.567021
2.503845,0.56577
2.507476,0.564851
2.511117,0.5657425
2.514769,0.567156
2.518431,0.56881
2.522103,0.570827
2.525787,0.573916
2.52948,0.576271
2.533185,0.57932
2.5369,0.58181
2.540627,0.582506
2.544364,0.583765
2.548112,0.583712
2.55187,0.585097
2.55564,0.584044
2.559421,0.586061
2.563213,0.59038
2.567016,0.5855466
2.570831,0.588322
2.574656,0.591124
2.578493,0.590637
2.582342,0.595102
2.586201,0.595092
2.590072,0.594683
2.593955,0.60154
2.597849,0.593374
2.601755,0.59432
2.605672,0.597852
2.609601,0.593374
2.613542,0.591228
2.617495,0.5954616
2.621459,0.592516
2.625435,0.588038
2.629424,0.58744
2.633424,0.582574
2.637437,0.576199
2.641461,0.572554
2.645498,0.56707
2.649547,0.55672
2.653609,0.553175
2.657682,0.543545
2.661768,0.536589
2.665867,0.535611
2.669978,0.516287
2.674102,0.480233
2.678238,0.440307
2.682387,0.376657
2.686549,0.313855
2.690724,0.2306479
2.694911,0.166372
2.699112,0.107843
2.703325,0.09213032
2.707552,0.09334638
2.711791,0.11001
2.716044,0.103153
2.72031,0.1350204
2.724589,0.134326
2.728882,0.119223
2.733188,0.113403
2.737508,0.105524
2.741841,0.10958
2.746188,0.104611
2.750549,0.112145
2.754923,0.121466
2.759311,0.122091
2.763713,0.127112
2.768129,0.125665
2.772559,0.125337
2.777003,0.121933
2.781461,0.119833
2.785934,0.117614
2.79042,0.115514
2.794922,0.113871
2.799437,0.1130111
2.803967,0.112342
2.808512,0.109901
2.813071,0.108773
2.817645,0.106979
2.822233,0.106021
2.826837,0.105232
2.831455,0.1037821
2.836089,0.102285
2.840737,0.101118
2.845401,0.09922136
2.85008,0.09696012
2.854774,0.09635376
2.859484,0.09465555
2.864209,0.0929453
2.868949,0.09321614
2.873705,0.09150134
2.878477,0.09015553
2.883265,0.0893081
2.888068,0.08829328
2.892887,0.08799737
2.897723,0.08638079
2.902574,0.08526793
2.907441,0.08377639
2.912325,0.0829355
2.917225,0.08340232
2.922142,0.08204408
2.927075,0.08056628
2.932024,0.08037903
2.93699,0.08041986
2.941973,0.07984696
2.946973,0.08111362
2.951989,0.07944097
2.957023,0.08145134
2.962073,0.07957396
2.967141,0.07988333
2.972226,0.08030085
2.977328,0.08281562
2.982448,0.08123109
2.987586,0.08196547
2.99274,0.08459453
2.997913,0.08380326
3.003103,0.08579543
3.008312,0.08537472
3.013538,0.08641695
3.018782,0.08810196
3.024044,0.08873364
3.029325,0.09015469
3.034624,0.09361348
3.039942,0.09181984
3.045278,0.09384355
3.050632,0.09315943
3.056006,0.09412666
3.061398,0.09432518
3.066809,0.09747421
3.072239,0.09535083
3.077689,0.09633348
3.083157,0.09691136
3.088645,0.09863731
3.094153,0.0984594
3.099679,0.09979587
3.105226,0.100052
3.110792,0.100922
3.116378,0.102323
3.121985,0.103252
3.127611,0.104863
3.133257,0.10624
3.138924,0.107686
3.144611,0.110055
3.150319,0.112088
3.156047,0.113922
3.161796,0.115866
3.167566,0.117955
3.173356,0.120299
3.179168,0.122912
3.185001,0.124592
3.190856,0.126581
3.196731,0.129942
3.202629,0.131189
3.208548,0.13334
3.214488,0.13908
3.220451,0.141143
3.226436,0.143323
3.232443,0.143822
3.238472,0.146459
3.244523,0.149842
3.250598,0.151979
3.256694,0.154279
3.262814,0.148037
3.268956,0.146854
3.275122,0.146137
3.28131,0.149793
3.287522,0.153802
3.293757,0.156348
3.300016,0.158731
3.306299,0.1608
3.312605,0.160926
3.318936,0.1621297
3.32529,0.16403
3.331669,0.165712
3.338072,0.1618811
3.344499,0.163568
3.350952,0.166721
3.357429,0.167019
3.363931,0.1710884
3.370458,0.172521
3.37701,0.173782
3.383588,0.1763
3.390191,0.178318
3.39682,0.18055
3.403475,0.179842
3.410156,0.177138
3.416862,0.172723
3.423596,0.174924
3.430355,0.177091
3.437141,0.181947
3.443954,0.189256
3.450794,0.189154
3.457661,0.192416
3.464556,0.195984
3.471477,0.199216
3.478426,0.205119
3.485403,0.215599
3.492408,0.2317043
3.499441,0.242295
3.506502,0.253881
3.513592,0.263795
3.52071,0.273996
3.527857,0.281912
3.535032,0.293726
3.542237,0.3004315
3.549471,0.3076629
3.556735,0.314811
3.564028,0.320895
3.571351,0.3275194
3.578704,0.332811
3.586088,0.338339
3.593501,0.342789
3.600946,0.347011
3.608421,0.350926
3.615926,0.356627
3.623463,0.359657
3.631032,0.363195
3.638632,0.366792
3.646263,0.370928
3.653927,0.374705
3.661623,0.3778454
3.669351,0.380268
3.677111,0.383764
3.684905,0.38685
3.692731,0.388617
3.70059,0.391276
3.708483,0.392895
3.716409,0.392004
3.72437,0.38896
3.732364,0.3818118
3.740392,0.374769
3.748455,0.367411
3.756553,0.359172
3.764685,0.349978
3.772853,0.340274
3.781056,0.330084
3.789294,0.321803
3.797568,0.314436
3.805879,0.310563
3.814225,0.3065281
3.822609,0.302304
3.831029,0.298493
3.839486,0.295332
3.84798,0.291724
3.856512,0.291227
3.865081,0.290463
3.873689,0.287742
3.882334,0.279197
3.891019,0.268976
3.899742,0.2600922
3.908504,0.252982
3.917305,0.247882
3.926146,0.242117
3.935027,0.236211
3.943948,0.230814
3.952909,0.2291586
3.961911,0.2366628
3.970954,0.253895
3.980038,0.279314
3.989163,0.30517
3.99833,0.330867
4.00754,0.353941
4.016791,0.378438
4.026086,0.403163
4.035423,0.427724
4.044804,0.44747
4.054228,0.463213
4.063695,0.4748348
4.073207,0.484135
4.082764,0.491055
4.092365,0.497652
4.102012,0.502612
4.111703,0.50716
4.121441,0.510972
4.131224,0.514397
4.141054,0.5179892
4.150931,0.522128
4.160854,0.52507
4.170826,0.528766
4.180844,0.531356
4.190911,0.535991
4.201026,0.546844
4.21119,0.5730356
4.221404,0.601961
4.231666,0.624656
4.241979,0.632206
4.252341,0.613045
4.262754,0.597452
4.273219,0.618512
4.283734,0.617707
4.294301,0.6213796
4.30492,0.6157987
4.315592,0.607823
4.326317,0.600576
4.337095,0.59451
4.347926,0.591583
4.358811,0.590921
4.369751,0.591316
4.380746,0.5923557
4.391796,0.596187
4.402902,0.599914
4.414064,0.603333
4.425282,0.6066533
4.436558,0.610312
4.447891,0.613258
4.459281,0.6160505
4.47073,0.619435
4.482238,0.621086
4.493805,0.62342
4.505431,0.625479
4.517118,0.626795
4.528865,0.629353
4.540674,0.630051
4.552543,0.6312547
4.564475,0.633087
4.57647,0.635964
4.588527,0.639348
4.600648,0.642707
4.612833,0.647925
4.625082,0.65225
4.637397,0.657454
4.649777,0.662562
4.662223,0.667093
4.674735,0.672249
4.687315,0.675495
4.699962,0.680852
4.712678,0.684723
4.725463,0.687917
4.738316,0.691868
4.75124,0.695919
4.764234,0.699144
4.777299,0.702841
4.790436,0.706564
4.803645,0.710845
4.816927,0.71153
4.830283,0.714901
4.843712,0.718362
4.857216,0.719963
4.870795,0.722165
4.884451,0.7245033
4.898182,0.727765
4.911991,0.728913
4.925878,0.731877
4.939844,0.734835
4.953888,0.738232
4.968013,0.7394063
4.982218,0.741567
4.996504,0.743472
5.010872,0.744021
5.025323,0.74783
5.039857,0.746524
5.054475,0.747277
5.069179,0.750262
5.083967,0.75605
5.098842,0.756817
5.113804,0.760314
5.128854,0.76217
5.143992,0.767779
5.15922,0.763723
5.174538,0.76529
5.189947,0.765246
5.205448,0.7685452
5.221041,0.76775
5.236728,0.770033
5.25251,0.76825
5.268386,0.770175
5.284358,0.7717822
5.300428,0.772156
5.316595,0.772614
5.33286,0.772858
5.349226,0.787431
5.365692,0.771442
5.382259,0.770223
5.398928,0.767554
5.415701,0.775619
5.432579,0.762527
5.449561,0.764135
5.46665,0.779553
5.483846,0.7745826
5.50115,0.769393
5.518564,0.767639
5.536087,0.750346
5.553723,0.749151
5.57147,0.724121
5.589332,0.762668
5.607307,0.796378
5.625399,0.8033057
5.643607,0.814593
5.661934,0.805334
5.680379,0.8129209
5.698945,0.813207
5.717633,0.824015
5.736443,0.823048
5.755377,0.818306
5.774436,0.826544
5.793621,0.821017
5.812934,0.834555
5.832376,0.834253
5.851948,0.832191
5.871652,0.8456972
5.891488,0.852605
5.911459,0.831751
5.931565,0.858972
5.951809,0.832829
5.97219,0.848721
5.992711,0.852978
6.013374,0.856946
6.034179,0.85065
6.055129,0.862925
6.076224,0.872372
6.097466,0.861468
6.118857,0.874651
6.140398,0.874392
6.162091,0.877874
6.183938,0.8942763
6.20594,0.878983
6.228099,0.878962
6.250416,0.879188
6.272893,0.883284
6.295533,0.883378
6.318336,0.884917
6.341304,0.9082311
6.36444,0.901857
6.387745,0.891452
6.411221,0.9398695
6.434869,0.90447
6.458693,0.9024519
6.482693,0.930919
6.506872,0.903767
6.531231,0.902271
6.555774,0.915741
6.580501,0.919635
6.605415,0.912995
6.630518,0.943309
6.655812,0.9110166
6.6813,0.918888
6.706983,0.928893
6.732864,0.915539
6.758945,0.920192
6.785229,0.9370222
6.811718,0.9235921
6.838413,0.920872
6.865319,0.938129
6.892437,0.9309309
6.919769,0.928571
6.947319,0.937983
6.975089,0.930518
7.003081,0.931861
7.031298,0.939474
7.059743,0.932607
7.088419,0.934576
7.117329,0.938484
7.146475,0.944735
7.17586,0.943124
7.205487,0.949714
7.23536,0.948105
7.265481,0.9531932
7.295854,0.95143
7.326481,0.956765
7.357366,0.953783
7.388512,0.955319
7.419922,0.956925
7.451601,0.961306
7.48355,0.959371
7.515774,0.961444
7.548277,0.963148
7.581061,0.965431
7.614131,0.966175
7.647491,0.966995
7.681143,0.967804
7.715093,0.969056
7.749343,0.9704832
7.783899,0.97058
7.818764,0.971168
7.853942,0.972417
7.889437,0.973497
7.925254,0.97438
7.961398,0.9751249
7.997872,0.975745
8.034682,0.976964
8.071832,0.978176
8.109326,0.97918
8.147169,0.979739
8.185368,0.980736
8.223925,0.981311
8.262847,0.981982
8.302139,0.982747
8.341805,0.983336
8.381852,0.983985
8.422285,0.984771
8.463109,0.985445
8.504331,0.986893
8.545955,0.98724
8.587989,0.987935
8.630437,0.98883
8.673307,0.989427
8.716604,0.9898281
8.760335,0.989662
8.804507,0.990414
8.849125,0.9904437
8.894198,0.991138
8.939732,0.9917759
8.985733,0.992037
9.03221,0.992258
9.07917,0.992824
9.12662,0.9930439
9.174568,0.993078
9.223022,0.993195
9.27199,0.992932
9.32148,0.993081
9.3715,0.99333
9.42206,0.993309
9.473167,0.9934823
9.524832,0.994039
9.577062,0.994025
9.629868,0.994585
9.683259,0.994385
9.737244,0.995119
9.791834,0.9951908
9.847039,0.995736
9.902869,0.996212
9.959336,0.9965119
10.0164,0.996644
10.0742,0.997058
10.1327,0.99738
10.1918,0.9973669
10.2516,0.997935
10.3121,0.997828
10.37336,0.998304
10.4353,0.998468
10.498,0.998992
10.5615,0.9990497
10.6258,0.99935
10.69079,0.999737
10.7566,0.0100003
10.8233,0.0100033
10.8907,0.999941
10.9591,0.99983
11.02824,0.999987
11.0983,0.0100012
11.1693,0.999791
11.2411,0.999493
11.3139,0.999758
11.3877,0.999572
11.46238,0.0100011
11.5381,0.0100047
11.6148,0.0100006
11.6925,0.010003
11.77129,0.0100007
11.8511,0.999932
11.9321,0.9996882
12.0141,0.9997109
12.0973,0.999167
12.1816,0.999303
12.26716,0.999553
12.3539,0.9998972
12.4419,0.999839
12.5311,0.9999372
12.6216,0.0100048
12.7134,0.99999
12.8066,0.0100006
12.9012,0.9996451
12.9971,0.999647
13.09451,0.999468
13.1934,0.9991
13.29374,0.998319
13.3956,0.998557
13.4991,0.99822
13.6042,0.998438
13.7109,0.997727
13.8194,0.998337
13.9295,0.996796
14.0414,0.997126
14.1552,0.996444
14.2707,0.994474
14.3882,0.99344
14.5077,0.990541
14.6291,0.987244
14.7526,0.983106
14.8782,0.977219
15.00592,0.96924
15.1359,0.957173
15.2681,0.939153
15.4026,0.908393
15.5396,0.867342
15.679,0.80075
15.8209,0.731043
15.9654,0.657077