File: csv_library/FTIR_PLG_08.csv
Database of Origin,University of Winnipeg Spectrophotometer Facility
Sample Description,IR Reflectance spectra of plagioclase with a Bruker Vertex 70 FTIR. See Master Plagioclase in PSF database for additional info.
Date Added,2016-11-22 04:00:06.377422

Data ID,FTIR_PLG_08
Sample ID,PLG117
Mineral Name,Plagioclase
Grain Size,<45 um
Viewing Geometry,"i30, e0"
Resolution,7.71cm-1
Material Class,Tectosilicate

Wavelength
1670.16,0.55299
1672.32,0.55275
1674.48,0.55281
1676.64,0.55254
1678.81,0.55232
1680.99,0.55261
1683.18,0.55335
1685.36,0.55369
1687.56,0.55297
1689.76,0.55235
1691.96,0.55239
1694.18,0.55224
1696.39,0.55169
1698.62,0.55139
1700.85,0.55196
1703.08,0.55239
1705.32,0.55188
1707.57,0.55126
1709.82,0.55087
1712.08,0.55087
1714.35,0.55126
1716.62,0.55157
1718.89,0.55174
1721.18,0.55178
1723.46,0.55124
1725.76,0.55058
1728.06,0.55028
1730.37,0.55021
1732.68,0.55083
1735,0.55173
1737.33,0.55187
1739.66,0.55163
1742,0.55154
1744.34,0.55139
1746.69,0.5511
1749.05,0.55067
1751.41,0.55054
1753.78,0.55076
1756.16,0.55055
1758.54,0.55021
1760.93,0.55014
1763.33,0.55005
1765.73,0.54985
1768.14,0.54972
1770.55,0.5498
1772.98,0.54982
1775.4,0.54986
1777.84,0.54993
1780.28,0.54973
1782.73,0.54958
1785.19,0.54965
1787.65,0.54961
1790.12,0.54935
1792.59,0.54919
1795.08,0.54938
1797.57,0.5498
1800.06,0.55028
1802.57,0.55054
1805.08,0.5503
1807.59,0.55006
1810.12,0.55019
1812.65,0.55048
1815.19,0.55055
1817.73,0.55093
1820.29,0.55162
1822.85,0.55156
1825.42,0.55142
1827.99,0.55188
1830.57,0.55217
1833.16,0.55254
1835.76,0.55383
1838.36,0.55499
1840.97,0.55459
1843.59,0.55352
1846.22,0.55372
1848.85,0.553
1851.49,0.55174
1854.14,0.55222
1856.8,0.55246
1859.46,0.55166
1862.13,0.5502
1864.81,0.54989
1867.5,0.55176
1870.19,0.55358
1872.9,0.55288
1875.61,0.55023
1878.33,0.5472
1881.05,0.54535
1883.79,0.54493
1886.53,0.54459
1889.28,0.54405
1892.04,0.5425
1894.8,0.54036
1897.58,0.53939
1900.36,0.53847
1903.15,0.53672
1905.95,0.53422
1908.76,0.53161
1911.57,0.53051
1914.39,0.52988
1917.23,0.52963
1920.07,0.53011
1922.92,0.52977
1925.77,0.52949
1928.64,0.53003
1931.51,0.53051
1934.4,0.53082
1937.29,0.53114
1940.19,0.53152
1943.1,0.53174
1946.01,0.5318
1948.94,0.53184
1951.88,0.53188
1954.82,0.53204
1957.77,0.5324
1960.73,0.53285
1963.7,0.53324
1966.68,0.53341
1969.67,0.53343
1972.67,0.53342
1975.68,0.53349
1978.69,0.53384
1981.72,0.53438
1984.76,0.53469
1987.8,0.53477
1990.85,0.53502
1993.92,0.53544
1996.99,0.53578
2000.07,0.53594
2003.16,0.536
2006.26,0.53604
2009.37,0.53628
2012.49,0.5369
2015.62,0.53748
2018.76,0.53786
2021.91,0.53812
2025.07,0.53812
2028.24,0.53815
2031.42,0.53867
2034.61,0.53933
2037.81,0.53977
2041.02,0.53982
2044.24,0.53948
2047.46,0.5392
2050.7,0.53923
2053.95,0.53942
2057.21,0.53954
2060.48,0.53956
2063.77,0.53954
2067.06,0.5396
2070.36,0.53989
2073.67,0.5401
2077,0.54009
2080.33,0.54008
2083.67,0.54006
2087.03,0.53984
2090.4,0.53951
2093.77,0.53932
2097.16,0.53945
2100.56,0.53946
2103.97,0.53899
2107.39,0.53866
2110.82,0.53869
2114.27,0.53865
2117.72,0.53834
2121.19,0.53783
2124.66,0.5373
2128.15,0.53712
2131.65,0.53696
2135.16,0.5365
2138.69,0.5361
2142.22,0.53571
2145.77,0.53521
2149.33,0.53443
2152.9,0.53324
2156.48,0.53199
2160.08,0.53055
2163.68,0.52859
2167.3,0.52641
2170.93,0.52437
2174.57,0.52238
2178.23,0.52036
2181.89,0.51828
2185.57,0.51618
2189.27,0.51429
2192.97,0.51281
2196.69,0.51197
2200.42,0.51198
2204.16,0.51274
2207.91,0.51431
2211.68,0.51625
2215.46,0.51767
2219.26,0.5182
2223.06,0.51769
2226.88,0.51642
2230.71,0.51498
2234.56,0.51357
2238.42,0.5122
2242.29,0.51095
2246.18,0.5098
2250.08,0.5087
2253.99,0.50777
2257.92,0.50711
2261.86,0.50689
2265.813,0.5071
2269.78,0.50722
2273.76,0.50687
2277.76,0.50597
2281.77,0.50467
2285.79,0.50322
2289.83,0.50202
2293.89,0.50139
2297.95,0.50101
2302.03,0.50055
2306.13,0.49966
2310.24,0.49788
2314.37,0.49483
2318.51,0.49036
2322.66,0.48463
2326.83,0.47833
2331.02,0.47291
2335.22,0.46955
2339.43,0.46815
2343.66,0.46752
2347.91,0.46628
2352.17,0.4646
2356.45,0.46407
2360.74,0.46581
2365.05,0.46984
2369.37,0.47472
2373.71,0.47856
2378.06,0.48077
2382.44,0.48184
2386.82,0.48256
2391.23,0.48359
2395.65,0.48508
2400.08,0.4865
2404.54,0.48729
2409.01,0.48749
2413.49,0.48753
2417.99,0.4875
2422.51,0.4871
2427.05,0.48634
2431.6,0.48554
2436.17,0.48495
2440.76,0.48453
2445.37,0.48418
2449.99,0.48381
2454.63,0.48324
2459.29,0.48245
2463.96,0.48169
2468.66,0.481
2473.37,0.48031
2478.1,0.47997
2482.84,0.47998
2487.61,0.47968
2492.39,0.47912
2497.2,0.47868
2502.02,0.47842
2506.86,0.47806
2511.72,0.4776
2516.59,0.47697
2521.49,0.47613
2526.4,0.47578
2531.34,0.47605
2536.29,0.47626
2541.26,0.47689
2546.26,0.4774
2551.27,0.47649
2556.3,0.47654
2561.35,0.4787
2566.43,0.47933
2571.52,0.4791
2576.63,0.48032
2581.76,0.48261
2586.92,0.48411
2592.09,0.48392
2597.28,0.48284
2602.5,0.48273
2607.74,0.48153
2612.99,0.47974
2618.27,0.4783
2623.57,0.47664
2628.89,0.47574
2634.24,0.47083
2639.6,0.46604
2644.99,0.46467
2650.4,0.4645
2655.83,0.46564
2661.28,0.4693
2666.76,0.47168
2672.26,0.46585
2677.779,0.45323
2683.32,0.43826
2688.89,0.42325
2694.48,0.40275
2700.09,0.37689
2705.73,0.34897
2711.39,0.31376
2717.08,0.27633
2722.78,0.23692
2728.52,0.20616
2734.27,0.18766
2740.05,0.16902
2745.86,0.15414
2751.69,0.14996
2757.54,0.15444
2763.42,0.16335
2769.327,0.1726
2775.26,0.17955
2781.21,0.183
2787.19,0.18212
2793.2,0.17873
2799.23,0.17546
2805.29,0.17164
2811.38,0.16807
2817.49,0.16597
2823.63,0.1646
2829.79,0.1634
2835.98,0.16075
2842.2,0.15525
2848.45,0.14768
2854.72,0.13774
2861.03,0.12779
2867.36,0.1236
2873.71,0.12736
2880.1,0.13579
2886.51,0.14454
2892.96,0.15148
2899.43,0.15577
2905.93,0.15698
2912.46,0.15614
2919.02,0.15464
2925.61,0.15323
2932.23,0.15252
2938.88,0.15321
2945.56,0.155
2952.27,0.15705
2959.01,0.15905
2965.78,0.16091
2972.58,0.1625
2979.41,0.16369
2986.28,0.16472
2993.18,0.16605
3000.1,0.16767
3007.07,0.16945
3014.06,0.17172
3021.084,0.17448
3028.14,0.17731
3035.23,0.18004
3042.36,0.18264
3049.52,0.18505
3056.71,0.18711
3063.94,0.18891
3071.2,0.19038
3078.49,0.19126
3085.82,0.19194
3093.19,0.19274
3100.59,0.19338
3108.02,0.19371
3115.49,0.19412
3123,0.19477
3130.54,0.19538
3138.12,0.19597
3145.74,0.19694
3153.39,0.19826
3161.09,0.1997
3168.81,0.20153
3176.58,0.20387
3184.39,0.2065
3192.23,0.20949
3200.11,0.21303
3208.03,0.21675
3215.99,0.22025
3223.99,0.22389
3232.03,0.22772
3240.11,0.23148
3248.23,0.23529
3256.39,0.23922
3264.6,0.2431
3272.84,0.24669
3281.13,0.24981
3289.45,0.25266
3297.82,0.25534
3306.24,0.25793
3314.69,0.2606
3323.19,0.26317
3331.74,0.2655
3340.32,0.26775
3348.95,0.26999
3357.63,0.27214
3366.35,0.27426
3375.12,0.27692
3383.93,0.28017
3392.79,0.28309
3401.69,0.28518
3410.64,0.28738
3419.64,0.29121
3428.69,0.2966
3437.79,0.30193
3446.93,0.30642
3456.12,0.31016
3465.36,0.3131
3474.65,0.31552
3483.99,0.31787
3493.38,0.32069
3502.82,0.32467
3512.32,0.32976
3521.86,0.3349
3531.46,0.33936
3541.11,0.34318
3550.81,0.34645
3560.56,0.34943
3570.37,0.35233
3580.23,0.35508
3590.15,0.35767
3600.13,0.36028
3610.15,0.36302
3620.24,0.36568
3630.38,0.36807
3640.58,0.37035
3650.83,0.37264
3661.14,0.37494
3671.52,0.37722
3681.95,0.37948
3692.44,0.38191
3702.99,0.38426
3713.6,0.38626
3724.27,0.38832
3735,0.39061
3745.79,0.39281
3756.65,0.39484
3767.57,0.39664
3778.56,0.39811
3789.61,0.39933
3800.72,0.40026
3811.9,0.40085
3823.14,0.40131
3834.45,0.40188
3845.83,0.40275
3857.28,0.40367
3868.79,0.40441
3880.37,0.40522
3892.03,0.40633
3903.75,0.40749
3915.54,0.4082
3927.41,0.40835
3939.35,0.40773
3951.36,0.40614
3963.44,0.40438
3975.6,0.40362
3987.83,0.40458
4000.14,0.40717
4012.52,0.41019
4024.98,0.41225
4037.52,0.41333
4050.14,0.41421
4062.84,0.4151
4075.61,0.41559
4088.47,0.41558
4101.41,0.41527
4114.43,0.41478
4127.53,0.4141
4140.72,0.41337
4153.99,0.41267
4167.35,0.41197
4180.79,0.41183
4194.32,0.41484
4207.94,0.42423
4221.65,0.43716
4235.44,0.44128
4249.33,0.43408
4263.31,0.42928
4277.38,0.4287
4291.54,0.42384
4305.8,0.41422
4320.15,0.40415
4334.6,0.39613
4349.14,0.39041
4363.79,0.38614
4378.53,0.38243
4393.37,0.37842
4408.32,0.37348
4423.36,0.36729
4438.51,0.36035
4453.76,0.3545
4469.12,0.35158
4484.58,0.35171
4500.16,0.35346
4515.84,0.3549
4531.626,0.35522
4547.53,0.35413
4563.54,0.35143
4579.66,0.34706
4595.9,0.34155
4612.26,0.33598
4628.73,0.33141
4645.32,0.32831
4662.03,0.32652
4678.86,0.32506
4695.82,0.32337
4712.89,0.32127
4730.09,0.3187
4747.42,0.3157
4764.87,0.31259
4782.45,0.3097
4800.17,0.30709
4818.01,0.30453
4835.99,0.30234
4854.1,0.30023
4872.35,0.29778
4890.74,0.295
4909.26,0.29218
4927.93,0.28955
4946.74,0.28727
4965.69,0.28465
4984.79,0.28123
5004.03,0.27745
5023.43,0.27344
5042.98,0.26917
5062.68,0.26526
5082.53,0.26167
5102.54,0.25797
5122.71,0.25425
5143.04,0.25045
5163.53,0.24641
5184.18,0.24286
5205,0.23948
5225.99,0.23521
5247.15,0.23033
5268.48,0.22565
5289.98,0.22109
5311.66,0.21661
5333.52,0.21296
5355.56,0.20866
5377.78,0.20319
5400.19,0.19848
5422.78,0.19463
5445.57,0.1921
5468.54,0.19154
5491.72,0.19203
5515.09,0.1936
5538.65,0.19573
5562.43,0.19732
5586.4,0.19785
5610.58,0.19797
5634.98,0.19715
5659.59,0.19441
5684.41,0.19202
5709.45,0.19067
5734.71,0.18817
5760.2,0.18305
5785.92,0.17674
5811.86,0.17157
5838.04,0.16644
5864.46,0.16113
5891.11,0.15414
5918.01,0.14655
5945.16,0.13904
5972.56,0.1313
6000.21,0.12492
6028.12,0.12132
6056.29,0.11954
6084.72,0.1178
6113.42,0.11697
6142.39,0.11793
6171.64,0.1201
6201.17,0.12188
6230.99,0.12282
6261.09,0.12316
6291.48,0.12303
6322.17,0.12361
6353.16,0.12531
6384.46,0.12707
6416.06,0.12768
6447.99,0.1271
6480.23,0.12681
6512.79,0.12552
6545.68,0.12372
6578.91,0.12171
6612.47,0.11879
6646.38,0.11563
6680.64,0.11276
6715.26,0.11004
6750.23,0.1076
6785.58,0.10512
6821.29,0.10259
6857.38,0.10017
6893.86,0.0976
6930.72,0.09592
6967.98,0.09468
7005.65,0.09328
7043.72,0.09166
7082.21,0.08973
7121.13,0.08799
7160.47,0.08598
7200.25,0.08341
7240.48,0.08095
7281.15,0.07866
7322.29,0.07609
7363.89,0.07293
7405.97,0.06961
7448.53,0.06624
7491.59,0.0624
7535.15,0.05852
7579.21,0.05476
7623.79,0.05096
7668.91,0.04721
7714.55,0.04349
7760.75,0.03984
7807.5,0.03644
7854.82,0.03325
7902.71,0.0303
7951.2,0.02773
8000.28,0.02559
8049.97,0.024
8100.28,0.02306
8151.23,0.02276
8202.82,0.0232
8255.06,0.02458
8307.98,0.02688
8361.58,0.02942
8415.88,0.03175
8470.88,0.03398
8526.61,0.03592
8583.08,0.03721
8640.3,0.03782
8698.29,0.03818
8757.06,0.03824
8816.63,0.03766
8877.02,0.03693
8938.24,0.03645
9000.31,0.03587
9063.25,0.03489
9127.08,0.0333
9191.81,0.03146
9257.46,0.03007
9324.07,0.02932
9391.63,0.02933
9460.18,0.03044
9529.74,0.03251
9600.33,0.03496
9671.98,0.03668
9744.7,0.03715
9818.52,0.0368
9893.47,0.03661
9969.58,0.03725
10046.9,0.03794
10125.4,0.03812
10205.1,0.03868
10286.1,0.04016
10368.4,0.04236
10452,0.04474
10537,0.04657
10623.3,0.04776
10711.1,0.04848
10800.4,0.04849
10891.1,0.04819
10983.4,0.04822
11077.3,0.04838
11172.8,0.04845
11270,0.04879
11368.8,0.04973
11469.4,0.05132
11571.8,0.05382
11676.1,0.05684
11782.2,0.05912
11890.3,0.05986
12000.4,0.05926
12112.6,0.05794
12226.8,0.05628
12343.3,0.05415
12462,0.05087
12583,0.04572
12706.3,0.03939
12832.1,0.03413
12960.5,0.03156
13091.4,0.03096
13224.9,0.03099
13361.3,0.03112
13500.5,0.031
13642.6,0.03094
13787.7,0.03146
13936,0.03169
14087.4,0.03081
14242.3,0.02929
14400.5,0.02799
14562.3,0.02717
14727.8,0.02699
14897.1,0.02759
15070.3,0.02868
15247.6,0.03004
15429.1,0.03227
15615,0.03481
15805.4,0.03623
16000.6,0.03625
16200.6,0.03541
16405.6,0.03532
16616,0.03693
16831.8,0.03947
17053.2,0.04126
17280.6,0.04018
17514.1,0.03772
17754,0.03728
18000.6,0.03804
18254.2,0.03935
18514.9,0.04105
18783.3,0.04136
19059.5,0.04008
19344,0.0376
19637,0.03531
19939.2,0.03467
20250.7,0.03437
20572.1,0.03378
20904,0.03411
21246.6,0.0351
21600.8,0.03596
21966.9,0.03703
22345.6,0.03738
22737.6,0.03553
23143.7,0.03468
23564.5,0.03745
24000.8,0.04786
24453.7,0.04812
24923.9,0.02912
25412.6,0.02431