File: csv_library/FTIR_LNR_3_10.csv
Database of Origin,University of Winnipeg Spectrophotometer Facility
Sample Description,Lunar samples/ analogues and glasses - D and P 102F FTIR spectra (from PSF) NASA Apollo lunar samples
Other Information,diffuse gold puck 100 spectra averaged
Date Added,2018-07-23 21:03:11.6142

Data ID,FTIR_LNR_3_10
Sample ID,apollo 12 ID# 12030 185 7
Grain Size,<1mm?
Viewing Geometry,i=30/ e=0
Resolution,3 cm-1
Composition,regolith sample

Wavelength
2.001142,0.245871
2.003474,0.245718
2.005812,0.246031
2.008155,0.245621
2.010504,0.246204
2.012858,0.245658
2.015217,0.245703
2.017582,0.245976
2.019952,0.246216
2.022328,0.245967
2.024709,0.246091
2.027096,0.246492
2.029488,0.245731
2.031886,0.246573
2.034289,0.246631
2.036698,0.246155
2.039113,0.246855
2.041533,0.246827
2.043959,0.246686
2.046391,0.24697
2.048828,0.247158
2.051271,0.247203
2.05372,0.247112
2.056175,0.248017
2.058635,0.248809
2.061101,0.248016
2.063573,0.24849
2.066051,0.249445
2.068534,0.249213
2.071024,0.249648
2.073519,0.24963
2.07602,0.250178
2.078528,0.250014
2.081041,0.249578
2.08356,0.250013
2.086085,0.251166
2.088617,0.250824
2.091154,0.25105
2.093697,0.250773
2.096247,0.251195
2.098803,0.251487
2.101364,0.251243
2.103932,0.250989
2.106506,0.251497
2.109087,0.251339
2.111673,0.251326
2.114266,0.250816
2.116865,0.250865
2.119471,0.25168
2.122082,0.251818
2.1247,0.2524459
2.127325,0.253146
2.129956,0.254054
2.132593,0.253726
2.135237,0.254174
2.137887,0.25326
2.140544,0.253987
2.143207,0.254502
2.145876,0.253739
2.148553,0.254091
2.151235,0.254777
2.153925,0.254701
2.156621,0.255866
2.159324,0.256163
2.162033,0.256058
2.164749,0.256769
2.167472,0.257169
2.170202,0.258241
2.172938,0.258633
2.175682,0.258107
2.178432,0.258876
2.181189,0.258887
2.183952,0.259221
2.186723,0.260363
2.189501,0.260202
2.192285,0.26036
2.195077,0.261034
2.197876,0.261308
2.200682,0.261341
2.203494,0.262554
2.206314,0.261936
2.209141,0.26301
2.211975,0.263293
2.214817,0.262836
2.217665,0.263561
2.220521,0.264023
2.223384,0.264766
2.226254,0.265069
2.229132,0.263929
2.232017,0.265244
2.23491,0.265635
2.237809,0.265475
2.240717,0.266265
2.243631,0.267176
2.246554,0.267838
2.249483,0.267273
2.252421,0.267627
2.255365,0.268621
2.258318,0.26942
2.261278,0.268509
2.264246,0.269462
2.267221,0.269484
2.270204,0.269732
2.273195,0.270056
2.276194,0.270732
2.279201,0.271163
2.282215,0.271701
2.285237,0.272159
2.288268,0.272595
2.291306,0.272687
2.294352,0.273354
2.297406,0.272678
2.300468,0.272143
2.303539,0.273336
2.306617,0.274654
2.309703,0.273472
2.312798,0.274579
2.315901,0.274969
2.319012,0.274533
2.322131,0.274679
2.325259,0.275403
2.328395,0.275947
2.33154,0.276101
2.334692,0.276224
2.337854,0.276601
2.341023,0.277195
2.344201,0.277356
2.347388,0.277296
2.350583,0.277918
2.353787,0.278032
2.357,0.278456
2.360221,0.278941
2.363451,0.279043
2.36669,0.27945
2.369937,0.279862
2.373194,0.280273
2.376459,0.280932
2.379733,0.281186
2.383016,0.281014
2.386308,0.281944
2.389609,0.282198
2.392919,0.281863
2.396238,0.282342
2.399566,0.28297
2.402903,0.282754
2.40625,0.282951
2.409606,0.283448
2.412971,0.283688
2.416345,0.283625
2.419729,0.284545
2.423122,0.284521
2.426524,0.284995
2.429936,0.284387
2.433358,0.285384
2.436789,0.285992
2.440229,0.285772
2.443679,0.287833
2.447139,0.28685
2.450609,0.28806
2.454088,0.28794
2.457577,0.287513
2.461076,0.288332
2.464585,0.288446
2.468104,0.289439
2.471632,0.289104
2.475171,0.289124
2.47872,0.290102
2.482278,0.29031
2.485847,0.290513
2.489427,0.291108
2.493016,0.29143
2.496615,0.292099
2.500225,0.292258
2.503845,0.292796
2.507476,0.29303
2.511117,0.293182
2.514769,0.294701
2.518431,0.294974
2.522103,0.295165
2.525787,0.295278
2.52948,0.296043
2.533185,0.296649
2.5369,0.29803
2.540627,0.297472
2.544364,0.298568
2.548112,0.299526
2.55187,0.300676
2.55564,0.299222
2.559421,0.301354
2.563213,0.304527
2.567016,0.29982
2.570831,0.301518
2.574656,0.303994
2.578493,0.302088
2.582342,0.306531
2.586201,0.305008
2.590072,0.303588
2.593955,0.316391
2.597849,0.30355
2.601755,0.305164
2.605672,0.311057
2.609601,0.306677
2.613542,0.305305
2.617495,0.311123
2.621459,0.31085
2.625435,0.31029
2.629424,0.311573
2.633424,0.308611
2.637437,0.30656
2.641461,0.308761
2.645498,0.309619
2.649547,0.30728
2.653609,0.310856
2.657682,0.309083
2.661768,0.310799
2.665867,0.321067
2.669978,0.320185
2.674102,0.308779
2.678238,0.315361
2.682387,0.309391
2.686549,0.310306
2.690724,0.307948
2.694911,0.313632
2.699112,0.307229
2.703325,0.307346
2.707552,0.306015
2.711791,0.30943
2.716044,0.301541
2.72031,0.308269
2.724589,0.302949
2.728882,0.294506
2.733188,0.292804
2.737508,0.290461
2.741841,0.29384
2.746188,0.28752
2.750549,0.286108
2.754923,0.287593
2.759311,0.282995
2.763713,0.285211
2.768129,0.283557
2.772559,0.283283
2.777003,0.281537
2.781461,0.281472
2.785934,0.28068
2.79042,0.27998
2.794922,0.279145
2.799437,0.279035
2.803967,0.281531
2.808512,0.279818
2.813071,0.278721
2.817645,0.277615
2.822233,0.279465
2.826837,0.278569
2.831455,0.277695
2.836089,0.279051
2.840737,0.277594
2.845401,0.277888
2.85008,0.277556
2.854774,0.2783329
2.859484,0.277885
2.864209,0.277047
2.868949,0.277334
2.873705,0.277305
2.878477,0.276968
2.883265,0.277294
2.888068,0.277594
2.892887,0.276778
2.897723,0.277278
2.902574,0.277143
2.907441,0.275957
2.912325,0.27667
2.917225,0.277514
2.922142,0.276066
2.927075,0.276291
2.932024,0.277009
2.93699,0.277082
2.941973,0.276616
2.946973,0.2783
2.951989,0.275764
2.957023,0.278181
2.962073,0.276154
2.967141,0.277206
2.972226,0.277458
2.977328,0.279658
2.982448,0.277771
2.987586,0.277908
2.99274,0.280007
2.997913,0.278606
3.003103,0.280949
3.008312,0.279755
3.013538,0.280717
3.018782,0.280784
3.024044,0.281002
3.029325,0.28191
3.034624,0.285103
3.039942,0.283472
3.045278,0.28507
3.050632,0.284016
3.056006,0.283856
3.061398,0.285099
3.066809,0.286478
3.072239,0.284976
3.077689,0.285095
3.083157,0.286339
3.088645,0.286817
3.094153,0.286099
3.099679,0.287143
3.105226,0.285935
3.110792,0.286787
3.116378,0.286808
3.121985,0.286675
3.127611,0.287199
3.133257,0.287322
3.138924,0.287377
3.144611,0.287609
3.150319,0.288236
3.156047,0.287814
3.161796,0.288714
3.167566,0.289215
3.173356,0.289638
3.179168,0.2903787
3.185001,0.289963
3.190856,0.290613
3.196731,0.292165
3.202629,0.292018
3.208548,0.291482
3.214488,0.295157
3.220451,0.295315
3.226436,0.295223
3.232443,0.293807
3.238472,0.29461
3.244523,0.296056
3.250598,0.296347
3.256694,0.298584
3.262814,0.296027
3.268956,0.297373
3.275122,0.296704
3.28131,0.297336
3.287522,0.298654
3.293757,0.298162
3.300016,0.299275
3.306299,0.300461
3.312605,0.299878
3.318936,0.300183
3.32529,0.301421
3.331669,0.30326
3.338072,0.30104
3.344499,0.301647
3.350952,0.303144
3.357429,0.30194
3.363931,0.303493
3.370458,0.303888
3.37701,0.303657
3.383588,0.30491
3.390191,0.306134
3.39682,0.307358
3.403475,0.308312
3.410156,0.309368
3.416862,0.310047
3.423596,0.312124
3.430355,0.311258
3.437141,0.311928
3.443954,0.315768
3.450794,0.312086
3.457661,0.312651
3.464556,0.314271
3.471477,0.31441
3.478426,0.315162
3.485403,0.31598
3.492408,0.319217
3.499441,0.318426
3.506502,0.320229
3.513592,0.320726
3.52071,0.320721
3.527857,0.32084
3.535032,0.323984
3.542237,0.323136
3.549471,0.32389
3.556735,0.325533
3.564028,0.326461
3.571351,0.32811
3.578704,0.328472
3.586088,0.330282
3.593501,0.33036
3.600946,0.331788
3.608421,0.33222
3.615926,0.334122
3.623463,0.334445
3.631032,0.335411
3.638632,0.33586
3.646263,0.337473
3.653927,0.339065
3.661623,0.339782
3.669351,0.341348
3.677111,0.342407
3.684905,0.344839
3.692731,0.345844
3.70059,0.347146
3.708483,0.348816
3.716409,0.351048
3.72437,0.351575
3.732364,0.353456
3.740392,0.355875
3.748455,0.357875
3.756553,0.358782
3.764685,0.36124
3.772853,0.363824
3.781056,0.366007
3.789294,0.367332
3.797568,0.369697
3.805879,0.371886
3.814225,0.373655
3.822609,0.375806
3.831029,0.377555
3.839486,0.379607
3.84798,0.381565
3.856512,0.383647
3.865081,0.385462
3.873689,0.387633
3.882334,0.38972
3.891019,0.391824
3.899742,0.394271
3.908504,0.396636
3.917305,0.39892
3.926146,0.401384
3.935027,0.403717
3.943948,0.406407
3.952909,0.409603
3.961911,0.412285
3.970954,0.416046
3.980038,0.418964
3.989163,0.422052
3.99833,0.424384
4.00754,0.426795
4.016791,0.429576
4.026086,0.432575
4.035423,0.435706
4.044804,0.438643
4.054228,0.44192
4.063695,0.445265
4.073207,0.449442
4.082764,0.452683
4.092365,0.456927
4.102012,0.460553
4.111703,0.465171
4.121441,0.469532
4.131224,0.473401
4.141054,0.478189
4.150931,0.483135
4.160854,0.487797
4.170826,0.4925
4.180844,0.496862
4.190911,0.501924
4.201026,0.506777
4.21119,0.513383
4.221404,0.520953
4.231666,0.528456
4.241979,0.533864
4.252341,0.536608
4.262754,0.540926
4.273219,0.547862
4.283734,0.55483
4.294301,0.559301
4.30492,0.56581
4.315592,0.570852
4.326317,0.576734
4.337095,0.58089
4.347926,0.587862
4.358811,0.595558
4.369751,0.601612
4.380746,0.608839
4.391796,0.614817
4.402902,0.622889
4.414064,0.630076
4.425282,0.636915
4.436558,0.643756
4.447891,0.650152
4.459281,0.655868
4.47073,0.662223
4.482238,0.666723
4.493805,0.671519
4.505431,0.678455
4.517118,0.682403
4.528865,0.685497
4.540674,0.689849
4.552543,0.69667
4.564475,0.700338
4.57647,0.706397
4.588527,0.712596
4.600648,0.715323
4.612833,0.720453
4.625082,0.724439
4.637397,0.730251
4.649777,0.734851
4.662223,0.740714
4.674735,0.746482
4.687315,0.752677
4.699962,0.758651
4.712678,0.765766
4.725463,0.772641
4.738316,0.779036
4.75124,0.785647
4.764234,0.791452
4.777299,0.797747
4.790436,0.803359
4.803645,0.808233
4.816927,0.81341
4.830283,0.817074
4.843712,0.820439
4.857216,0.825718
4.870795,0.828315
4.884451,0.829337
4.898182,0.834122
4.911991,0.836808
4.925878,0.839449
4.939844,0.842251
4.953888,0.845538
4.968013,0.847853
4.982218,0.850392
4.996504,0.8536
5.010872,0.856095
5.025323,0.860182
5.039857,0.862562
5.054475,0.865037
5.069179,0.867651
5.083967,0.871959
5.098842,0.87382
5.113804,0.876931
5.128854,0.880486
5.143992,0.883717
5.15922,0.885456
5.174538,0.888011
5.189947,0.891458
5.205448,0.895235
5.221041,0.897979
5.236728,0.901707
5.25251,0.904235
5.268386,0.90746
5.284358,0.91073
5.300428,0.914005
5.316595,0.917555
5.33286,0.921011
5.349226,0.928832
5.365692,0.930152
5.382259,0.937023
5.398928,0.946223
5.415701,0.962583
5.432579,0.980102
5.449561,0.0101578
5.46665,0.0109757
5.483846,0.0127454
5.50115,0.0182221
5.518564,0.663878
5.536087,0.429757
5.553723,0.554742
5.57147,0.628619
5.589332,0.673669
5.607307,0.704723
5.625399,0.728759
5.643607,0.741413
5.661934,0.760401
5.680379,0.773528
5.698945,0.784933
5.717633,0.791271
5.736443,0.802095
5.755377,0.808897
5.774436,0.815314
5.793621,0.822562
5.812934,0.827875
5.832376,0.834026
5.851948,0.839702
5.871652,0.844914
5.891488,0.847098
5.911459,0.857053
5.931565,0.856242
5.951809,0.868124
5.97219,0.868341
5.992711,0.872525
6.013374,0.873492
6.034179,0.879211
6.055129,0.87488
6.076224,0.876785
6.097466,0.88225
6.118857,0.881147
6.140398,0.884762
6.162091,0.887584
6.183938,0.886964
6.20594,0.897765
6.228099,0.902444
6.250416,0.90655
6.272893,0.910226
6.295533,0.913564
6.318336,0.916325
6.341304,0.911801
6.36444,0.919548
6.387745,0.925099
6.411221,0.912095
6.434869,0.927861
6.458693,0.931657
6.482693,0.927416
6.506872,0.940421
6.531231,0.945198
6.555774,0.945317
6.580501,0.948094
6.605415,0.952934
6.630518,0.946847
6.655812,0.961679
6.6813,0.960905
6.706983,0.963234
6.732864,0.968027
6.758945,0.970411
6.785229,0.966842
6.811718,0.974163
6.838413,0.977696
6.865319,0.974248
6.892437,0.980437
6.919769,0.982879
6.947319,0.983139
6.975089,0.989009
7.003081,0.991092
7.031298,0.991494
7.059743,0.996655
7.088419,0.998523
7.117329,0.999623
7.146475,0.010012
7.17586,0.0100468
7.205487,0.0100581
7.23536,0.0100914
7.265481,0.0101091
7.295854,0.0101377
7.326481,0.0101586
7.357366,0.0101869
7.388512,0.0102025
7.419922,0.010232
7.451601,0.0102472
7.48355,0.0102755
7.515774,0.0102948
7.548277,0.0103142
7.581061,0.01033
7.614131,0.010356
7.647491,0.0103796
7.681143,0.0104018
7.715093,0.0104167
7.749343,0.01044
7.783899,0.0104606
7.818764,0.0104818
7.853942,0.0104955
7.889437,0.0105149
7.925254,0.0105294
7.961398,0.0105688
7.997872,0.010598
8.034682,0.0106289
8.071832,0.0106515
8.109326,0.0106746
8.147169,0.0106999
8.185368,0.0107202
8.223925,0.0107429
8.262847,0.0107646
8.302139,0.0107835
8.341805,0.0107956
8.381852,0.0108055
8.422285,0.0108288
8.463109,0.0108408
8.504331,0.0108634
8.545955,0.0108789
8.587989,0.0108941
8.630437,0.0109046
8.673307,0.0109161
8.716604,0.0109248
8.760335,0.0109344
8.804507,0.0109464
8.849125,0.0109487
8.894198,0.0109509
8.939732,0.0109561
8.985733,0.0109668
9.03221,0.0109716
9.07917,0.0109717
9.12662,0.0109766
9.174568,0.0109654
9.223022,0.0109736
9.27199,0.0109817
9.32148,0.010985
9.3715,0.0109934
9.42206,0.0110114
9.473167,0.0110039
9.524832,0.0110045
9.577062,0.0110118
9.629868,0.0110122
9.683259,0.0110168
9.737244,0.0110213
9.791834,0.0110269
9.847039,0.0110293
9.902869,0.0110437
9.959336,0.0110527
10.0164,0.0110559
10.0742,0.0110609
10.1327,0.0110622
10.1918,0.0110638
10.2516,0.0110594
10.3121,0.0110571
10.37336,0.0110541
10.4353,0.0110524
10.498,0.0110479
10.5615,0.0110429
10.6258,0.0110402
10.69079,0.0110296
10.7566,0.0110247
10.8233,0.0110233
10.8907,0.0110117
10.9591,0.0109985
11.02824,0.0109917
11.0983,0.0109759
11.1693,0.0109624
11.2411,0.0109516
11.3139,0.0109354
11.3877,0.0109258
11.46238,0.0109033
11.5381,0.0109043
11.6148,0.0108874
11.6925,0.0108671
11.77129,0.0108579
11.8511,0.0108482
11.9321,0.0108198
12.0141,0.0108152
12.0973,0.0107848
12.1816,0.0107727
12.26716,0.0107525
12.3539,0.0107443
12.4419,0.0107371
12.5311,0.0107144
12.6216,0.0107255
12.7134,0.0107383
12.8066,0.0107407
12.9012,0.0107281
12.9971,0.0107075
13.09451,0.0106922
13.1934,0.0106688
13.29374,0.0106466
13.3956,0.0106337
13.4991,0.0106111
13.6042,0.0105456
13.7109,0.0105424
13.8194,0.0105116
13.9295,0.010479
14.0414,0.0104344
14.1552,0.0103939
14.2707,0.010325
14.3882,0.0102663
14.5077,0.010158
14.6291,0.0100625
14.7526,0.989694
14.8782,0.974822
15.00592,0.940796
15.1359,0.893835
15.2681,0.833742
15.4026,0.763171
15.5396,0.662942
15.679,0.534502
15.8209,0.43775
15.9654,0.359224