File: csv_library/FTIR_LNR_3_9.csv
Database of Origin,University of Winnipeg Spectrophotometer Facility
Sample Description,Lunar samples/ analogues and glasses - D and P 102F FTIR spectra (from PSF) NASA Apollo lunar samples
Other Information,diffuse gold puck 100 spectra averaged
Date Added,2018-07-23 21:03:11.5912

Data ID,FTIR_LNR_3_9
Sample ID,apollo 12 ID# 12030 184 7
Grain Size,<1mm?
Viewing Geometry,i=30/ e=0
Resolution,3 cm-1
Composition,regolith sample

Wavelength
2.001142,0.16108
2.003474,0.16126
2.005812,0.160861
2.008155,0.161099
2.010504,0.16119
2.012858,0.161074
2.015217,0.16139
2.017582,0.16191
2.019952,0.161614
2.022328,0.161304
2.024709,0.161598
2.027096,0.161705
2.029488,0.16127
2.031886,0.162497
2.034289,0.161474
2.036698,0.162077
2.039113,0.162115
2.041533,0.16238
2.043959,0.162401
2.046391,0.162399
2.048828,0.162809
2.051271,0.162665
2.05372,0.16317
2.056175,0.163595
2.058635,0.163364
2.061101,0.163531
2.063573,0.16396
2.066051,0.164071
2.068534,0.16395
2.071024,0.164166
2.073519,0.163991
2.07602,0.164648
2.078528,0.164253
2.081041,0.164793
2.08356,0.165134
2.086085,0.165488
2.088617,0.165006
2.091154,0.165864
2.093697,0.165199
2.096247,0.166125
2.098803,0.166134
2.101364,0.166215
2.103932,0.166019
2.106506,0.165872
2.109087,0.166003
2.111673,0.165746
2.114266,0.164891
2.116865,0.165763
2.119471,0.166436
2.122082,0.165783
2.1247,0.166228
2.127325,0.166573
2.129956,0.166796
2.132593,0.16623
2.135237,0.166642
2.137887,0.166335
2.140544,0.166355
2.143207,0.166984
2.145876,0.166762
2.148553,0.167234
2.151235,0.167725
2.153925,0.167847
2.156621,0.168106
2.159324,0.168501
2.162033,0.169269
2.164749,0.16976
2.167472,0.16983
2.170202,0.169977
2.172938,0.170904
2.175682,0.170508
2.178432,0.171113
2.181189,0.171391
2.183952,0.171213
2.186723,0.172132
2.189501,0.172351
2.192285,0.171673
2.195077,0.171848
2.197876,0.172666
2.200682,0.17294
2.203494,0.173018
2.206314,0.173531
2.209141,0.173597
2.211975,0.173983
2.214817,0.174081
2.217665,0.17481
2.220521,0.175141
2.223384,0.174692
2.226254,0.174904
2.229132,0.175597
2.232017,0.174942
2.23491,0.175216
2.237809,0.175323
2.240717,0.176102
2.243631,0.176374
2.246554,0.176348
2.249483,0.176683
2.252421,0.176791
2.255365,0.177033
2.258318,0.177564
2.261278,0.177925
2.264246,0.178412
2.267221,0.17784
2.270204,0.178589
2.273195,0.17886
2.276194,0.178368
2.279201,0.179268
2.282215,0.180026
2.285237,0.180152
2.288268,0.180189
2.291306,0.180368
2.294352,0.181533
2.297406,0.180936
2.300468,0.18125
2.303539,0.181292
2.306617,0.182195
2.309703,0.182309
2.312798,0.182747
2.315901,0.182962
2.319012,0.182798
2.322131,0.182723
2.325259,0.183271
2.328395,0.18415
2.33154,0.183894
2.334692,0.18447
2.337854,0.183797
2.341023,0.184162
2.344201,0.184618
2.347388,0.184247
2.350583,0.184523
2.353787,0.184711
2.357,0.184734
2.360221,0.185164
2.363451,0.185465
2.36669,0.185697
2.369937,0.18579
2.373194,0.186209
2.376459,0.1867
2.379733,0.186812
2.383016,0.186942
2.386308,0.187588
2.389609,0.187473
2.392919,0.187403
2.396238,0.18761
2.399566,0.187732
2.402903,0.1876994
2.40625,0.188046
2.409606,0.188616
2.412971,0.188684
2.416345,0.189087
2.419729,0.189467
2.423122,0.189208
2.426524,0.189844
2.429936,0.190091
2.433358,0.190576
2.436789,0.191023
2.440229,0.190897
2.443679,0.192073
2.447139,0.191478
2.450609,0.191584
2.454088,0.192165
2.457577,0.192442
2.461076,0.19263
2.464585,0.192666
2.468104,0.192711
2.471632,0.193512
2.475171,0.193673
2.47872,0.193813
2.482278,0.193822
2.485847,0.194054
2.489427,0.194438
2.493016,0.195188
2.496615,0.195684
2.500225,0.196306
2.503845,0.195979
2.507476,0.196766
2.511117,0.197144
2.514769,0.197388
2.518431,0.197832
2.522103,0.198381
2.525787,0.198444
2.52948,0.199021
2.533185,0.199772
2.5369,0.200494
2.540627,0.200366
2.544364,0.200899
2.548112,0.201911
2.55187,0.20399
2.55564,0.201611
2.559421,0.203226
2.563213,0.206534
2.567016,0.202259
2.570831,0.204003
2.574656,0.205571
2.578493,0.203666
2.582342,0.207891
2.586201,0.206367
2.590072,0.205331
2.593955,0.2171085
2.597849,0.205145
2.601755,0.207201
2.605672,0.211967
2.609601,0.208542
2.613542,0.206941
2.617495,0.212295
2.621459,0.2118
2.625435,0.210976
2.629424,0.212715
2.633424,0.20973
2.637437,0.208046
2.641461,0.209381
2.645498,0.210174
2.649547,0.208148
2.653609,0.211387
2.657682,0.209626
2.661768,0.211617
2.665867,0.221491
2.669978,0.220761
2.674102,0.21057
2.678238,0.215636
2.682387,0.210455
2.686549,0.211975
2.690724,0.209432
2.694911,0.214626
2.699112,0.208333
2.703325,0.208226
2.707552,0.20681
2.711791,0.210048
2.716044,0.201502
2.72031,0.207093
2.724589,0.202003
2.728882,0.194813
2.733188,0.192285
2.737508,0.189791
2.741841,0.191782
2.746188,0.186901
2.750549,0.185585
2.754923,0.187665
2.759311,0.183934
2.763713,0.18506
2.768129,0.183323
2.772559,0.183273
2.777003,0.181922
2.781461,0.181977
2.785934,0.181433
2.79042,0.181711
2.794922,0.181126
2.799437,0.18052
2.803967,0.182243
2.808512,0.180444
2.813071,0.179799
2.817645,0.179861
2.822233,0.179808
2.826837,0.179913
2.831455,0.179141
2.836089,0.180164
2.840737,0.179027
2.845401,0.179745
2.85008,0.179432
2.854774,0.179385
2.859484,0.179644
2.864209,0.179229
2.868949,0.17958
2.873705,0.180086
2.878477,0.179305
2.883265,0.178745
2.888068,0.178961
2.892887,0.17918
2.897723,0.178808
2.902574,0.178278
2.907441,0.178296
2.912325,0.178507
2.917225,0.180335
2.922142,0.178597
2.927075,0.178096
2.932024,0.1780047
2.93699,0.179621
2.941973,0.178998
2.946973,0.18133
2.951989,0.178044
2.957023,0.180706
2.962073,0.17893
2.967141,0.18039
2.972226,0.179901
2.977328,0.182725
2.982448,0.180628
2.987586,0.180729
2.99274,0.18297
2.997913,0.182357
3.003103,0.183642
3.008312,0.181777
3.013538,0.18307
3.018782,0.183138
3.024044,0.183767
3.029325,0.184595
3.034624,0.187844
3.039942,0.186023
3.045278,0.188161
3.050632,0.186545
3.056006,0.187213
3.061398,0.187561
3.066809,0.189469
3.072239,0.188228
3.077689,0.188446
3.083157,0.189303
3.088645,0.190249
3.094153,0.189443
3.099679,0.190709
3.105226,0.189884
3.110792,0.189995
3.116378,0.189996
3.121985,0.190097
3.127611,0.190091
3.133257,0.189697
3.138924,0.190367
3.144611,0.190576
3.150319,0.191145
3.156047,0.191659
3.161796,0.191568
3.167566,0.19168
3.173356,0.192521
3.179168,0.193867
3.185001,0.19334
3.190856,0.193305
3.196731,0.195143
3.202629,0.195022
3.208548,0.194767
3.214488,0.198622
3.220451,0.197916
3.226436,0.198682
3.232443,0.197289
3.238472,0.197393
3.244523,0.199209
3.250598,0.199728
3.256694,0.201983
3.262814,0.199154
3.268956,0.200631
3.275122,0.199852
3.28131,0.200556
3.287522,0.201934
3.293757,0.201964
3.300016,0.202818
3.306299,0.203794
3.312605,0.202729
3.318936,0.203531
3.32529,0.204224
3.331669,0.20631
3.338072,0.203619
3.344499,0.204656
3.350952,0.205711
3.357429,0.204397
3.363931,0.205783
3.370458,0.205485
3.37701,0.204553
3.383588,0.205384
3.390191,0.206366
3.39682,0.208284
3.403475,0.208762
3.410156,0.208726
3.416862,0.208605
3.423596,0.211302
3.430355,0.211036
3.437141,0.212637
3.443954,0.217717
3.450794,0.214291
3.457661,0.215343
3.464556,0.217222
3.471477,0.216855
3.478426,0.217951
3.485403,0.218483
3.492408,0.222725
3.499441,0.22082
3.506502,0.222044
3.513592,0.223127
3.52071,0.224798
3.527857,0.225229
3.535032,0.229187
3.542237,0.227835
3.549471,0.228868
3.556735,0.230392
3.564028,0.231615
3.571351,0.233504
3.578704,0.233965
3.586088,0.236219
3.593501,0.236363
3.600946,0.23769
3.608421,0.238261
3.615926,0.240382
3.623463,0.2407149
3.631032,0.241456
3.638632,0.243012
3.646263,0.244336
3.653927,0.246662
3.661623,0.247027
3.669351,0.249307
3.677111,0.250856
3.684905,0.25337
3.692731,0.25414
3.70059,0.255996
3.708483,0.257529
3.716409,0.260038
3.72437,0.261749
3.732364,0.263711
3.740392,0.266038
3.748455,0.268397
3.756553,0.269737
3.764685,0.27164
3.772853,0.273785
3.781056,0.276353
3.789294,0.278613
3.797568,0.280814
3.805879,0.283536
3.814225,0.286083
3.822609,0.28831
3.831029,0.290283
3.839486,0.292855
3.84798,0.295255
3.856512,0.297702
3.865081,0.299968
3.873689,0.302372
3.882334,0.304764
3.891019,0.307278
3.899742,0.310001
3.908504,0.312732
3.917305,0.315542
3.926146,0.318192
3.935027,0.321379
3.943948,0.324657
3.952909,0.328264
3.961911,0.331788
3.970954,0.335964
3.980038,0.339548
3.989163,0.342692
3.99833,0.345253
4.00754,0.348548
4.016791,0.351498
4.026086,0.355204
4.035423,0.358397
4.044804,0.362289
4.054228,0.366176
4.063695,0.370421
4.073207,0.375012
4.082764,0.378691
4.092365,0.383733
4.102012,0.387943
4.111703,0.392822
4.121441,0.397944
4.131224,0.4031833
4.141054,0.408547
4.150931,0.413948
4.160854,0.418943
4.170826,0.424536
4.180844,0.430151
4.190911,0.43597
4.201026,0.442173
4.21119,0.449354
4.221404,0.457412
4.231666,0.464756
4.241979,0.471274
4.252341,0.475132
4.262754,0.480277
4.273219,0.48848
4.283734,0.496158
4.294301,0.501449
4.30492,0.508443
4.315592,0.514475
4.326317,0.521248
4.337095,0.52637
4.347926,0.53428
4.358811,0.5434
4.369751,0.550537
4.380746,0.558438
4.391796,0.565506
4.402902,0.574673
4.414064,0.58248
4.425282,0.590624
4.436558,0.598058
4.447891,0.605684
4.459281,0.612117
4.47073,0.619368
4.482238,0.6249246
4.493805,0.63082
4.505431,0.637574
4.517118,0.642355
4.528865,0.646933
4.540674,0.651545
4.552543,0.659261
4.564475,0.663402
4.57647,0.670267
4.588527,0.676283
4.600648,0.681015
4.612833,0.6868586
4.625082,0.69159
4.637397,0.698078
4.649777,0.703895
4.662223,0.710751
4.674735,0.71783
4.687315,0.724728
4.699962,0.731831
4.712678,0.73965
4.725463,0.747391
4.738316,0.754526
4.75124,0.762501
4.764234,0.769134
4.777299,0.776053
4.790436,0.7827
4.803645,0.788619
4.816927,0.794504
4.830283,0.798781
4.843712,0.802817
4.857216,0.808757
4.870795,0.81221
4.884451,0.813758
4.898182,0.819249
4.911991,0.822233
4.925878,0.82526
4.939844,0.828653
4.953888,0.832199
4.968013,0.834928
4.982218,0.837868
4.996504,0.841163
5.010872,0.84482
5.025323,0.848351
5.039857,0.850847
5.054475,0.853754
5.069179,0.856904
5.083967,0.861505
5.098842,0.863717
5.113804,0.867349
5.128854,0.871024
5.143992,0.874632
5.15922,0.876776
5.174538,0.879456
5.189947,0.883156
5.205448,0.887358
5.221041,0.890367
5.236728,0.894037
5.25251,0.896607
5.268386,0.900041
5.284358,0.903388
5.300428,0.90674
5.316595,0.910322
5.33286,0.913809
5.349226,0.9220878
5.365692,0.923064
5.382259,0.929731
5.398928,0.939129
5.415701,0.955778
5.432579,0.97382
5.449561,0.0101193
5.46665,0.0110036
5.483846,0.0129143
5.50115,0.0188628
5.518564,0.685599
5.536087,0.380656
5.553723,0.514521
5.57147,0.592854
5.589332,0.644236
5.607307,0.676646
5.625399,0.702808
5.643607,0.715692
5.661934,0.73644
5.680379,0.748929
5.698945,0.760135
5.717633,0.769405
5.736443,0.779694
5.755377,0.786258
5.774436,0.793662
5.793621,0.802782
5.812934,0.807789
5.832376,0.814286
5.851948,0.820879
5.871652,0.825922
5.891488,0.82989
5.911459,0.839588
5.931565,0.838556
5.951809,0.851694
5.97219,0.851922
5.992711,0.854947
6.013374,0.856813
6.034179,0.861483
6.055129,0.859135
6.076224,0.860436
6.097466,0.866047
6.118857,0.865108
6.140398,0.868681
6.162091,0.87202
6.183938,0.871314
6.20594,0.883506
6.228099,0.889591
6.250416,0.894029
6.272893,0.897761
6.295533,0.902926
6.318336,0.904529
6.341304,0.901237
6.36444,0.90854
6.387745,0.913932
6.411221,0.904146
6.434869,0.917203
6.458693,0.921093
6.482693,0.917001
6.506872,0.929651
6.531231,0.93483
6.555774,0.935365
6.580501,0.938691
6.605415,0.943006
6.630518,0.939194
6.655812,0.950935
6.6813,0.951359
6.706983,0.953601
6.732864,0.958318
6.758945,0.960142
6.785229,0.957667
6.811718,0.963499
6.838413,0.966694
6.865319,0.964517
6.892437,0.970126
6.919769,0.972038
6.947319,0.972683
6.975089,0.978487
7.003081,0.980366
7.031298,0.981094
7.059743,0.986193
7.088419,0.987306
7.117329,0.988899
7.146475,0.990309
7.17586,0.993867
7.205487,0.994713
7.23536,0.99784
7.265481,0.010002
7.295854,0.0100247
7.326481,0.0100452
7.357366,0.0100719
7.388512,0.0100868
7.419922,0.0101148
7.451601,0.010132
7.48355,0.0101576
7.515774,0.0101736
7.548277,0.0101921
7.581061,0.0102133
7.614131,0.0102359
7.647491,0.0102565
7.681143,0.0102766
7.715093,0.0102896
7.749343,0.0103139
7.783899,0.0103328
7.818764,0.0103466
7.853942,0.0103617
7.889437,0.0103799
7.925254,0.0103964
7.961398,0.010436
7.997872,0.0104618
8.034682,0.0104918
8.071832,0.0105176
8.109326,0.0105392
8.147169,0.0105641
8.185368,0.0105853
8.223925,0.0106097
8.262847,0.0106326
8.302139,0.01065
8.341805,0.0106665
8.381852,0.0106803
8.422285,0.0107023
8.463109,0.0107158
8.504331,0.0107415
8.545955,0.0107553
8.587989,0.0107699
8.630437,0.010784
8.673307,0.0107991
8.716604,0.0108071
8.760335,0.0108206
8.804507,0.0108279
8.849125,0.0108341
8.894198,0.0108358
8.939732,0.0108404
8.985733,0.0108554
9.03221,0.010862
9.07917,0.0108629
9.12662,0.0108683
9.174568,0.0108577
9.223022,0.0108662
9.27199,0.0108742
9.32148,0.0108759
9.3715,0.0108867
9.42206,0.0109039
9.473167,0.0108977
9.524832,0.0109003
9.577062,0.0109062
9.629868,0.0109056
9.683259,0.0109107
9.737244,0.0109162
9.791834,0.0109208
9.847039,0.010925
9.902869,0.0109399
9.959336,0.0109485
10.0164,0.0109516
10.0742,0.0109576
10.1327,0.0109566
10.1918,0.0109581
10.2516,0.0109563
10.3121,0.0109519
10.37336,0.0109501
10.4353,0.0109508
10.498,0.0109467
10.5615,0.0109433
10.6258,0.01094
10.69079,0.0109323
10.7566,0.0109295
10.8233,0.0109266
10.8907,0.0109162
10.9591,0.0109005
11.02824,0.0108961
11.0983,0.0108814
11.1693,0.0108687
11.2411,0.0108553
11.3139,0.010847
11.3877,0.0108389
11.46238,0.0108179
11.5381,0.0108236
11.6148,0.0108054
11.6925,0.0107865
11.77129,0.0107804
11.8511,0.0107644
11.9321,0.0107404
12.0141,0.0107327
12.0973,0.0107077
12.1816,0.0107022
12.26716,0.0106835
12.3539,0.0106745
12.4419,0.010665
12.5311,0.0106472
12.6216,0.0106505
12.7134,0.0106612
12.8066,0.0106634
12.9012,0.0106539
12.9971,0.0106331
13.09451,0.0106145
13.1934,0.01059
13.29374,0.010569
13.3956,0.0105571
13.4991,0.0105298
13.6042,0.0104694
13.7109,0.0104677
13.8194,0.0104438
13.9295,0.0104071
14.0414,0.0103661
14.1552,0.010328
14.2707,0.010263
14.3882,0.0101981
14.5077,0.0100942
14.6291,0.998048
14.7526,0.983246
14.8782,0.965965
15.00592,0.94012
15.1359,0.89119
15.2681,0.83184
15.4026,0.762513
15.5396,0.666508
15.679,0.540752
15.8209,0.441879
15.9654,0.368081