File: csv_library/FTIR_PYX_04.csv
Database of Origin,University of Winnipeg Spectrophotometer Facility
Sample Description,"HOSERLab master pyroxenes, FTIR data"
Date Added,2016-12-14 03:34:49.6086

Data ID,FTIR_PYX_04
Sample ID,PYX023
Mineral Name,Orthopyroxene
Grain Size,45-90 um
Viewing Geometry,"i=30, e=0"
Material Class,Inosilicate

Wavelength
2000.56,0.335758
2002.307,0.336503
2004.058,0.3378828
2005.812,0.339234
2007.569,0.340377
2009.329,0.341385
2011.092,0.342601
2012.858,0.343648
2014.627,0.344669
2016.399,0.345836
2018.174,0.347189
2019.952,0.348552
2021.733,0.348923
2023.518,0.349543
2025.305,0.351453
2027.096,0.353158
2028.89,0.353917
2030.686,0.355154
2032.486,0.356796
2034.289,0.358491
2036.096,0.359425
2037.905,0.360816
2039.718,0.362627
2041.533,0.3636854
2043.352,0.364405
2045.174,0.365852
2047.0,0.366949
2048.828,0.368202
2050.66,0.3697
2052.495,0.371245
2054.333,0.372374
2056.175,0.373728
2058.019,0.375443
2059.867,0.376512
2061.718,0.377872
2063.573,0.378954
2065.431,0.3800742
2067.292,0.3809482
2069.156,0.3822164
2071.024,0.383807
2072.895,0.385773
2074.769,0.386711
2076.647,0.387764
2078.528,0.388878
2080.412,0.390555
2082.3,0.392349
2084.191,0.393266
2086.085,0.394098
2087.983,0.395917
2089.885,0.397614
2091.789,0.398521
2093.697,0.399768
2095.609,0.401606
2097.524,0.402638
2099.443,0.404049
2101.364,0.405824
2103.29,0.407032
2105.219,0.40832
2107.151,0.410158
2109.087,0.411878
2111.026,0.4128545
2112.969,0.4142608
2114.915,0.41537
2116.865,0.416772
2118.819,0.418769
2120.776,0.420272
2122.736,0.421276
2124.7,0.422735
2126.668,0.4235567
2128.64,0.424564
2130.614,0.426292
2132.593,0.428879
2134.575,0.430081
2136.561,0.43141
2138.55,0.433044
2140.544,0.434486
2142.54,0.43634
2144.541,0.437997
2146.545,0.439026
2148.553,0.440295
2150.564,0.44169
2152.579,0.442828
2154.598,0.443909
2156.621,0.445249
2158.647,0.447204
2160.678,0.448405
2162.712,0.449683
2164.749,0.450851
2166.791,0.452226
2168.836,0.453712
2170.885,0.454988
2172.938,0.456162
2174.995,0.456964
2177.056,0.458217
2179.12,0.459381
2181.189,0.460265
2183.261,0.462127
2185.337,0.463562
2187.417,0.464266
2189.501,0.465683
2191.589,0.466849
2193.68,0.467507
2195.776,0.468598
2197.876,0.470343
2199.979,0.471795
2202.087,0.472447
2204.199,0.473441
2206.314,0.474466
2208.434,0.475626
2210.557,0.476788
2212.685,0.477286
2214.817,0.477941
2216.952,0.478556
2219.092,0.478849
2221.236,0.479295
2223.384,0.479443
2225.536,0.479283
2227.692,0.479978
2229.853,0.480342
2232.017,0.47937
2234.186,0.478552
2236.359,0.4786
2238.536,0.47903
2240.717,0.47908
2242.902,0.478522
2245.092,0.478287
2247.285,0.478405
2249.483,0.478897
2251.686,0.47947
2253.892,0.479341
2256.103,0.479326
2258.318,0.479353
2260.537,0.478652
2262.761,0.477389
2264.989,0.476127
2267.221,0.474292
2269.458,0.473555
2271.699,0.473496
2273.944,0.4730807
2276.194,0.471891
2278.448,0.471158
2280.707,0.469949
2282.97,0.469073
2285.237,0.467315
2287.509,0.465428
2289.786,0.4634039
2292.067,0.461187
2294.352,0.459904
2296.642,0.4587851
2298.936,0.458042
2301.235,0.457335
2303.539,0.456101
2305.847,0.453909
2308.159,0.451232
2310.476,0.4477676
2312.798,0.44443
2315.124,0.442783
2317.455,0.44215
2319.791,0.4424373
2322.131,0.443871
2324.476,0.4463045
2326.826,0.449124
2329.18,0.451477
2331.54,0.453796
2333.903,0.4562498
2336.272,0.458965
2338.645,0.462552
2341.023,0.466873
2343.406,0.471215
2345.794,0.475283
2348.186,0.478612
2350.583,0.48174
2352.986,0.483523
2355.393,0.485376
2357.804,0.486691
2360.221,0.487768
2362.643,0.4882043
2365.069,0.487766
2367.501,0.487089
2369.937,0.48537
2372.379,0.483791
2374.825,0.481923
2377.276,0.479694
2379.733,0.477967
2382.194,0.47658
2384.661,0.476575
2387.132,0.476754
2389.609,0.477751
2392.09,0.479041
2394.577,0.480116
2397.069,0.481288
2399.566,0.482435
2402.068,0.4836852
2404.575,0.484438
2407.088,0.485158
2409.606,0.48536
2412.128,0.484608
2414.657,0.484162
2417.19,0.483969
2419.729,0.483417
2422.272,0.482547
2424.822,0.4821416
2427.376,0.481663
2429.936,0.481019
2432.501,0.480511
2435.072,0.480549
2437.648,0.480316
2440.229,0.480038
2442.816,0.480452
2445.408,0.480998
2448.006,0.481344
2450.609,0.48133
2453.217,0.481329
2455.831,0.48154
2458.451,0.481436
2461.076,0.481046
2463.707,0.481075
2466.343,0.481048
2468.985,0.480482
2471.632,0.479875
2474.285,0.478784
2476.944,0.478003
2479.608,0.477217
2482.278,0.4770239
2484.954,0.476724
2487.636,0.47579
2490.323,0.475172
2493.016,0.47338
2495.715,0.472375
2498.419,0.471397
2501.129,0.470831
2503.845,0.47044
2506.567,0.469903
2509.295,0.47053
2512.029,0.470816
2514.769,0.471394
2517.514,0.472052
2520.266,0.472823
2523.023,0.473711
2525.787,0.474192
2528.556,0.475141
2531.331,0.475639
2534.113,0.476009
2536.9,0.476326
2539.694,0.476638
2542.494,0.477058
2545.3,0.477263
2548.112,0.47707
2550.93,0.477485
2553.754,0.476333
2556.585,0.475379
2559.421,0.476468
2562.264,0.478013
2565.113,0.476735
2567.969,0.477781
2570.831,0.478115
2573.699,0.479271
2576.573,0.479763
2579.454,0.479925
2582.342,0.481298
2585.235,0.481227
2588.135,0.481729
2591.042,0.48312
2593.955,0.488959
2596.874,0.483184
2599.8,0.482379
2602.733,0.484954
2605.672,0.4858844
2608.618,0.483494
2611.57,0.482991
2614.529,0.484541
2617.495,0.485806
2620.467,0.484284
2623.446,0.482388
2626.431,0.4834854
2629.424,0.4845429
2632.423,0.48273
2635.429,0.479505
2638.442,0.477601
2641.461,0.476008
2644.488,0.475
2647.521,0.471876
2650.561,0.469604
2653.609,0.467013
2656.663,0.463705
2659.724,0.460826
2662.792,0.457643
2665.867,0.454259
2668.949,0.445363
2672.038,0.428017
2675.135,0.414507
2678.238,0.393792
2681.349,0.363295
2684.467,0.33044
2687.591,0.286934
2690.724,0.245557
2693.863,0.21411
2697.01,0.175863
2700.164,0.152103
2703.325,0.137436
2706.494,0.129052
2709.67,0.133764
2712.853,0.127226
2716.044,0.118367
2719.242,0.125961
2722.448,0.126769
2725.661,0.120232
2728.882,0.110583
2732.111,0.107298
2735.347,0.105576
2738.59,0.104754
2741.841,0.103716
2745.1,0.09787904
2748.367,0.09755546
2751.641,0.09827391
2754.923,0.09966502
2758.213,0.09872646
2761.51,0.09901937
2764.816,0.09955726
2768.129,0.09990843
2771.45,0.100248
2774.779,0.100238
2778.116,0.101167
2781.461,0.10181
2784.814,0.1028207
2788.175,0.104031
2791.544,0.104889
2794.922,0.105294
2798.307,0.106206
2801.7,0.10687
2805.102,0.107405
2808.512,0.1076089
2811.93,0.108508
2815.356,0.109202
2818.791,0.1101641
2822.233,0.110575
2825.685,0.111426
2829.144,0.112229
2832.612,0.11214
2836.089,0.111756
2839.574,0.111851
2843.067,0.112108
2846.569,0.112448
2850.08,0.112719
2853.599,0.113407
2857.127,0.113992
2860.664,0.11479
2864.209,0.115171
2867.763,0.115217
2871.325,0.114997
2874.897,0.1149874
2878.477,0.115437
2882.066,0.115911
2885.664,0.1153609
2889.271,0.1165808
2892.887,0.115999
2896.512,0.115229
2900.146,0.1151683
2903.789,0.115094
2907.441,0.115127
2911.103,0.1154215
2914.773,0.1157811
2918.453,0.116868
2922.142,0.116492
2925.84,0.116071
2929.547,0.116153
2933.264,0.116382
2936.99,0.116977
2940.726,0.117658
2944.471,0.118612
2948.225,0.120642
2951.989,0.119985
2955.763,0.121252
2959.546,0.120811
2963.339,0.121442
2967.141,0.122546
2970.953,0.123022
2974.775,0.1253382
2978.607,0.125741
2982.448,0.124974
2986.3,0.125541
2990.161,0.127012
2994.032,0.127726
2997.913,0.1277277
3001.804,0.129582
3005.705,0.129948
3009.616,0.130252
3013.538,0.132004
3017.469,0.132787
3021.411,0.132929
3025.363,0.13407
3029.325,0.136287
3033.298,0.138352
3037.281,0.13724
3041.274,0.137886
3045.278,0.139448
3049.292,0.1393221
3053.317,0.139723
3057.352,0.140465
3061.398,0.141717
3065.455,0.143351
3069.522,0.14276
3073.6,0.142911
3077.689,0.1441951
3081.788,0.145091
3085.899,0.145734
3090.02,0.146565
3094.153,0.146946
3098.296,0.147952
3102.45,0.149331
3106.616,0.148895
3110.792,0.149393
3114.98,0.150462
3119.179,0.151347
3123.389,0.15237
3127.611,0.153109
3131.844,0.154415
3136.088,0.15561
3140.344,0.156486
3144.611,0.157478
3148.89,0.158406
3153.18,0.159765
3157.482,0.161086
3161.796,0.162472
3166.121,0.163812
3170.458,0.16506
3174.807,0.166258
3179.168,0.168899
3183.541,0.170543
3187.926,0.170212
3192.323,0.172173
3196.731,0.173601
3201.152,0.174024
3205.585,0.175417
3210.031,0.176379
3214.488,0.180068
3218.958,0.1817702
3223.441,0.181016
3227.936,0.18187
3232.443,0.1825552
3236.963,0.184099
3241.495,0.184821
3246.04,0.186785
3250.598,0.18885
3255.168,0.1912043
3259.751,0.191728
3264.347,0.190535
3268.956,0.19228
3273.578,0.192827
3278.213,0.193305
3282.861,0.194912
3287.522,0.196193
3292.196,0.197493
3296.884,0.199827
3301.585,0.199596
3306.299,0.200937
3311.026,0.201377
3315.767,0.202535
3320.522,0.203677
3325.29,0.206382
3330.072,0.208818
3334.867,0.207217
3339.676,0.207201
3344.499,0.208977
3349.336,0.210766
3354.187,0.211253
3359.052,0.211152
3363.931,0.212874
3368.824,0.213715
3373.731,0.213704
3378.652,0.2135832
3383.588,0.214251
3388.538,0.21565
3393.502,0.216626
3398.481,0.218088
3403.475,0.219756
3408.483,0.220214
3413.506,0.218946
3418.543,0.219714
3423.596,0.222135
3428.663,0.222936
3433.745,0.224372
3438.842,0.227725
3443.954,0.230371
3449.082,0.229438
3454.224,0.2297729
3459.382,0.230845
3464.556,0.23228
3469.744,0.232478
3474.948,0.232947
3480.168,0.233962
3485.403,0.235283
3490.654,0.237804
3495.921,0.237543
3501.204,0.237233
3506.502,0.238706
3511.817,0.240155
3517.147,0.2415876
3522.494,0.243579
3527.857,0.245095
3533.236,0.248048
3538.631,0.249004
3544.043,0.248709
3549.471,0.249463
3554.916,0.25065
3560.378,0.25163
3565.856,0.252803
3571.351,0.254093
3576.863,0.254193
3582.392,0.255462
3587.938,0.256948
3593.501,0.257753
3599.082,0.258612
3604.679,0.258569
3610.294,0.259581
3615.926,0.261213
3621.576,0.261836
3627.244,0.262341
3632.929,0.263198
3638.632,0.264314
3644.353,0.265485
3650.091,0.267125
3655.848,0.2675
3661.623,0.267992
3667.416,0.269325
3673.227,0.270172
3679.057,0.271873
3684.905,0.273134
3690.771,0.2733585
3696.656,0.274182
3702.56,0.275518
3708.483,0.276639
3714.425,0.277894
3720.385,0.279061
3726.365,0.280223
3732.364,0.281529
3738.382,0.2825479
3744.419,0.2843857
3750.476,0.2857314
3756.553,0.286663
3762.649,0.287606
3768.764,0.288721
3774.9,0.289717
3781.056,0.29042
3787.231,0.291775
3793.427,0.292792
3799.643,0.294018
3805.879,0.2957125
3812.135,0.296802
3818.412,0.298179
3824.71,0.299516
3831.029,0.300526
3837.368,0.302014
3843.728,0.303537
3850.109,0.304876
3856.512,0.306336
3862.935,0.307856
3869.38,0.309283
3875.846,0.310703
3882.334,0.312145
3888.844,0.313486
3895.375,0.3149545
3901.929,0.316681
3908.504,0.317845
3915.101,0.319292
3921.721,0.320658
3928.363,0.321738
3935.027,0.323272
3941.714,0.324922
3948.423,0.326779
3955.156,0.328397
3961.911,0.330204
3968.689,0.332554
3975.491,0.334281
3982.315,0.336036
3989.163,0.337386
3996.035,0.338371
4002.93,0.339923
4009.849,0.341582
4016.791,0.342949
4023.758,0.344483
4030.749,0.34603
4037.764,0.347328
4044.804,0.348662
4051.867,0.350152
4058.956,0.3517155
4066.069,0.353574
4073.207,0.3555
4080.371,0.357749
4087.559,0.359855
4094.773,0.361839
4102.012,0.364131
4109.276,0.366179
4116.566,0.368497
4123.882,0.370923
4131.224,0.373028
4138.592,0.37547
4145.987,0.378078
4153.407,0.3804059
4160.854,0.383001
4168.328,0.385662
4175.829,0.388016
4183.356,0.3910921
4190.911,0.395035
4198.493,0.401663
4206.102,0.415407
4213.739,0.434873
4221.404,0.455114
4229.096,0.471454
4236.816,0.481619
4244.565,0.481381
4252.341,0.463918
4260.146,0.456293
4267.98,0.476912
4275.843,0.48385
4283.734,0.48584
4291.655,0.488916
4299.604,0.488304
4307.583,0.488189
4315.592,0.483898
4323.631,0.480873
4331.699,0.478819
4339.797,0.476792
4347.926,0.477073
4356.085,0.479141
4364.275,0.48141
4372.495,0.485075
4380.746,0.488846
4389.029,0.493782
4397.342,0.4986534
4405.687,0.503046
4414.064,0.50808
4422.472,0.513014
4430.913,0.517044
4439.386,0.521038
4447.891,0.524381
4456.428,0.52748
4464.998,0.530686
4473.602,0.534113
4482.238,0.537252
4490.908,0.539713
4499.611,0.542277
4508.347,0.544909
4517.118,0.546877
4525.923,0.5488
4534.762,0.550787
4543.635,0.55225
4552.543,0.55433
4561.487,0.556779
4570.465,0.5583926
4579.478,0.560162
4588.527,0.56259
4597.612,0.563966
4606.732,0.566593
4615.889,0.567794
4625.082,0.569418
4634.312,0.570747
4643.578,0.573228
4652.882,0.575918
4662.223,0.578805
4671.601,0.582971
4681.017,0.587659
4690.471,0.589471
4699.962,0.593268
4709.493,0.597878
4719.062,0.600932
4728.669,0.604199
4738.316,0.6072909
4748.002,0.609766
4757.728,0.613206
4767.494,0.616152
4777.299,0.619184
4787.145,0.622278
4797.032,0.624581
4806.959,0.627245
4816.927,0.630796
4826.937,0.6324902
4836.988,0.634427
4847.081,0.637998
4857.216,0.641581
4867.393,0.644356
4877.613,0.646442
4887.876,0.649734
4898.182,0.654412
4908.532,0.65759
4918.925,0.659229
4929.362,0.662878
4939.844,0.666328
4950.37,0.670011
4960.941,0.673063
4971.556,0.674362
4982.218,0.676945
4992.925,0.678864
5003.678,0.68167
5014.477,0.68588
5025.323,0.688552
5036.216,0.688226
5047.156,0.690044
5058.143,0.691973
5069.179,0.694012
5080.262,0.698517
5091.394,0.700168
5102.574,0.701713
5113.804,0.704533
5125.083,0.706771
5136.412,0.71168
5147.791,0.718543
5159.22,0.717543
5170.7,0.7205896
5182.231,0.724362
5193.814,0.7310784
5205.448,0.738527
5217.134,0.740984
5228.873,0.740566
5240.665,0.74522
5252.51,0.746317
5264.408,0.7496
5276.36,0.754552
5288.367,0.760116
5300.428,0.760752
5312.544,0.7613963
5324.715,0.764338
5336.942,0.769099
5349.226,0.781381
5361.566,0.776595
5373.962,0.775754
5386.417,0.777776
5398.928,0.780595
5411.498,0.790288
5424.127,0.799335
5436.814,0.792522
5449.561,0.797852
5462.368,0.812813
5475.234,0.81982
5488.162,0.82032
5501.15,0.822636
5514.2,0.845331
5527.312,0.869508
5540.486,0.889247
5553.723,0.810554
5567.023,0.626935
5580.387,0.618267
5593.815,0.687831
5607.307,0.7182283
5620.865,0.74033
5634.489,0.757471
5648.178,0.763544
5661.934,0.764591
5675.757,0.775099
5689.647,0.779067
5703.606,0.784558
5717.633,0.79298
5731.729,0.795674
5745.894,0.802967
5760.13,0.813709
5774.436,0.815743
5788.813,0.809803
5803.262,0.816445
5817.782,0.835676
5832.376,0.834557
5847.043,0.830386
5861.783,0.842987
5876.598,0.857013
5891.488,0.856747
5906.454,0.845141
5921.495,0.85117
5936.613,0.864954
5951.809,0.856369
5967.082,0.860279
5982.433,0.862042
5997.864,0.858831
6013.374,0.859808
6028.964,0.861743
6044.636,0.880086
6060.389,0.874641
6076.224,0.872668
6092.141,0.868722
6108.143,0.882196
6124.228,0.8748777
6140.398,0.87666
6156.654,0.881024
6172.996,0.88295
6189.424,0.883873
6205.94,0.881216
6222.544,0.88239
6239.237,0.883544
6256.02,0.885237
6272.893,0.887497
6289.858,0.887499
6306.914,0.889833
6324.062,0.894376
6341.304,0.900675
6358.64,0.901949
6376.071,0.902635
6393.598,0.904753
6411.221,0.919603
6428.941,0.909369
6446.759,0.907266
6464.676,0.912132
6482.693,0.922468
6500.81,0.916936
6519.029,0.917215
6537.35,0.917398
6555.774,0.922973
6574.302,0.926238
6592.934,0.924499
6611.673,0.927249
6630.518,0.934613
6649.47,0.9252721
6668.532,0.928634
6687.702,0.928534
6706.983,0.933715
6726.375,0.930037
6745.879,0.92979
6765.497,0.935033
6785.229,0.938002
6805.076,0.934599
6825.039,0.936537
6845.12,0.940824
6865.319,0.942347
6885.637,0.938364
6906.076,0.939527
6926.636,0.939019
6947.319,0.943041
6968.125,0.943505
6989.057,0.944411
7010.114,0.945336
7031.298,0.94946
7052.611,0.950083
7074.052,0.948787
7095.625,0.950342
7117.329,0.95209
7139.166,0.954816
7161.137,0.956206
7183.244,0.955899
7205.487,0.957579
7227.869,0.957649
7250.39,0.959547
7273.051,0.960829
7295.854,0.9610969
7318.8,0.963206
7341.891,0.964108
7365.128,0.964206
7388.512,0.966015
7412.045,0.96775
7435.728,0.969125
7459.562,0.970671
7483.55,0.971165
7507.692,0.971882
7531.99,0.972648
7556.446,0.9737212
7581.061,0.974398
7605.837,0.974404
7630.774,0.9747158
7655.876,0.975161
7681.143,0.976044
7706.577,0.976789
7732.18,0.977366
7757.953,0.978282
7783.899,0.979177
7810.018,0.980212
7836.313,0.981795
7862.786,0.983287
7889.437,0.984852
7916.27,0.985836
7943.285,0.986733
7970.485,0.988074
7997.872,0.989437
8025.448,0.990477
8053.214,0.991436
8081.173,0.9922083
8109.326,0.992801
8137.676,0.993751
8166.224,0.994529
8194.973,0.995712
8223.925,0.996485
8253.082,0.996982
8282.446,0.998093
8312.02,0.999094
8341.805,0.0100026
8371.804,0.010011
8402.02,0.0100192
8432.454,0.0100278
8463.109,0.0100325
8493.988,0.0100374
8525.092,0.0100411
8556.425,0.0100455
8587.989,0.0100498
8619.786,0.010052
8651.819,0.0100545
8684.091,0.0100586
8716.604,0.0100647
8749.361,0.010071
8782.365,0.0100752
8815.619,0.0100823
8849.125,0.0100931
8882.887,0.0101026
8916.907,0.0101121
8951.188,0.0101181
8985.733,0.0101216
9020.546,0.0101203
9055.629,0.010116
9090.986,0.0101124
9126.62,0.010109
9162.534,0.0100986
9198.731,0.0100888
9235.215,0.0100848
9271.99,0.01008
9309.058,0.0100778
9346.423,0.0100785
9384.089,0.0100797
9422.06,0.0100849
9460.339,0.0100881
9498.929,0.0100951
9537.836,0.0101001
9577.062,0.0101076
9616.612,0.0101131
9656.49,0.01012
9696.699,0.0101272
9737.244,0.0101269
9778.129,0.0101219
9819.359,0.0101161
9860.938,0.0101158
9902.869,0.0101167
9945.159,0.0101167
9987.811,0.0101175
10030.83,0.0101217
10074.221,0.0101232
10117.988,0.0101273
10162.137,0.0101333
10206.672,0.0101412
10251.6,0.010149
10296.924,0.0101547
10342.65,0.0101603
10388.784,0.0101642
10435.331,0.0101659
10482.296,0.0101648
10529.686,0.0101648
10577.505,0.0101681
10625.761,0.0101708
10674.458,0.0101676
10723.604,0.0101648
10773.203,0.010167
10823.264,0.0101673
10873.791,0.0101671
10924.791,0.01017
10976.272,0.0101746
11028.24,0.0101791
11080.702,0.0101807
11133.665,0.0101791
11187.137,0.01017592
11241.124,0.0101684
11295.634,0.0101618
11350.675,0.0101598
11406.254,0.0101514
11462.38,0.0101443
11519.06,0.0101363
11576.304,0.0101313
11634.118,0.0101297
11692.513,0.010129
11751.496,0.0101288
11811.077,0.0101307
11871.265,0.0101371
11932.068,0.010145
11993.497,0.010146
12055.562,0.010151
12118.271,0.0101544
12181.636,0.0101492
12245.667,0.0101488
12310.373,0.0101477
12375.767,0.010141
12441.859,0.0101331
12508.659,0.0101343
12576.18,0.0101315
12644.434,0.0101241
12713.432,0.0101209
12783.187,0.0101233
12853.71,0.0101262
12925.016,0.0101252
12997.116,0.0101289
13070.025,0.0101395
13143.756,0.0101403
13218.322,0.010145
13293.74,0.0101473
13370.021,0.0101507
13447.183,0.0101506
13525.24,0.010147
13604.208,0.0101379
13684.103,0.0101296
13764.941,0.0101138
13846.739,0.0101017
13929.515,0.0101009
14013.285,0.010093
14098.068,0.0100837
14183.883,0.0100748
14270.749,0.0100598
14358.684,0.0100571
14447.709,0.0100478
14537.844,0.0100191
14629.109,0.0100056
14721.528,0.999015
14815.121,0.99658
14909.91,0.992017
15005.92,0.9879686
15103.173,0.981627
15201.695,0.971569
15301.509,0.958056
15402.642,0.9375676
15505.12,0.909777
15608.97,0.877227
15714.22,0.830447
15820.897,0.783124
15929.033,0.743967
15965.407,0.72263