File: csv_library/FTIR_CLAY_02.csv
Database of Origin,University of Winnipeg Spectrophotometer Facility
Sample Description,See Master Clays in HOSERLab database
Date Added,2016-12-11 20:56:55.107

Data ID,FTIR_CLAY_02
Sample ID,BER102
Mineral Name,Berthierine
Grain Size,<45 m
Viewing Geometry,35/0
Resolution,11-72 nm
Material Class,Phyllosilicate

Wavelength
2001.142,0.405726
2003.474,0.406054
2005.812,0.406555
2008.155,0.407538
2010.504,0.408393
2012.858,0.40928
2015.217,0.409594
2017.582,0.410623
2019.952,0.410943
2022.328,0.411914
2024.709,0.412612
2027.096,0.413289
2029.488,0.413881
2031.886,0.415195
2034.289,0.416035
2036.698,0.416552
2039.113,0.416878
2041.533,0.417583
2043.959,0.4180115
2046.391,0.4190987
2048.828,0.419196
2051.271,0.419579
2053.72,0.419975
2056.175,0.420753
2058.635,0.421281
2061.101,0.421951
2063.573,0.422347
2066.051,0.422849
2068.534,0.422743
2071.024,0.423745
2073.519,0.4237471
2076.02,0.424821
2078.528,0.425352
2081.041,0.426047
2083.56,0.426426
2086.085,0.427408
2088.617,0.427627
2091.154,0.428147
2093.697,0.428041
2096.247,0.42828
2098.803,0.4291011
2101.364,0.42898
2103.932,0.430302
2106.506,0.4305819
2109.087,0.430559
2111.673,0.431586
2114.266,0.432316
2116.865,0.43255
2119.471,0.432946
2122.082,0.43328
2124.7,0.433316
2127.325,0.432633
2129.956,0.432172
2132.593,0.433037
2135.237,0.433222
2137.887,0.433287
2140.544,0.433919
2143.207,0.433837
2145.876,0.433761
2148.553,0.434062
2151.235,0.434294
2153.925,0.433993
2156.621,0.433405
2159.324,0.432919
2162.033,0.433159
2164.749,0.433609
2167.472,0.433574
2170.202,0.433639
2172.938,0.433027
2175.682,0.433013
2178.432,0.433174
2181.189,0.432929
2183.952,0.432183
2186.723,0.431363
2189.501,0.431213
2192.285,0.431008
2195.077,0.429977
2197.876,0.429966
2200.682,0.4294653
2203.494,0.428479
2206.314,0.4278674
2209.141,0.427667
2211.975,0.4272179
2214.817,0.426177
2217.665,0.425398
2220.521,0.424692
2223.384,0.423971
2226.254,0.422894
2229.132,0.421435
2232.017,0.420101
2234.91,0.4187702
2237.809,0.4171479
2240.717,0.41579
2243.631,0.413872
2246.554,0.411319
2249.483,0.409314
2252.421,0.407687
2255.365,0.406016
2258.318,0.405885
2261.278,0.403735
2264.246,0.4024418
2267.221,0.401194
2270.204,0.399578
2273.195,0.398401
2276.194,0.397314
2279.201,0.395708
2282.215,0.394557
2285.237,0.393505
2288.268,0.392478
2291.306,0.391256
2294.352,0.390518
2297.406,0.390114
2300.468,0.388652
2303.539,0.388305
2306.617,0.388125
2309.703,0.387752
2312.798,0.387426
2315.901,0.386787
2319.012,0.385528
2322.131,0.384632
2325.259,0.384328
2328.395,0.3839666
2331.54,0.381904
2334.692,0.380693
2337.854,0.380143
2341.023,0.379123
2344.201,0.378264
2347.388,0.377117
2350.583,0.37643
2353.787,0.375554
2357.0,0.37536
2360.221,0.375245
2363.451,0.375261
2366.69,0.375482
2369.937,0.375472
2373.194,0.375343
2376.459,0.376067
2379.733,0.376454
2383.016,0.376307
2386.308,0.376674
2389.609,0.376441
2392.919,0.376389
2396.238,0.376804
2399.566,0.376595
2402.903,0.3769151
2406.25,0.376175
2409.606,0.37604
2412.971,0.375437
2416.345,0.374758
2419.729,0.374541
2423.122,0.373992
2426.524,0.373426
2429.936,0.372483
2433.358,0.371843
2436.789,0.370825
2440.229,0.370196
2443.679,0.369217
2447.139,0.368549
2450.609,0.3669173
2454.088,0.366097
2457.577,0.364691
2461.076,0.3633868
2464.585,0.36186
2468.104,0.360728
2471.632,0.359303
2475.171,0.357661
2478.72,0.356629
2482.278,0.355368
2485.847,0.353684
2489.427,0.35313
2493.016,0.351859
2496.615,0.350473
2500.225,0.34968
2503.845,0.348861
2507.476,0.347917
2511.117,0.347208
2514.769,0.347044
2518.431,0.3463739
2522.103,0.346105
2525.787,0.345726
2529.48,0.345248
2533.185,0.346315
2536.9,0.34544
2540.627,0.344815
2544.364,0.34574
2548.112,0.345707
2551.87,0.346341
2555.64,0.343947
2559.421,0.34671
2563.213,0.351375
2567.016,0.345377
2570.831,0.3462828
2574.656,0.347376
2578.493,0.345291
2582.342,0.347347
2586.201,0.34641
2590.072,0.342509
2593.955,0.3516233
2597.849,0.342061
2601.755,0.341234
2605.672,0.345575
2609.601,0.338665
2613.542,0.335949
2617.495,0.340503
2621.459,0.335639
2625.435,0.331675
2629.424,0.334903
2633.424,0.330305
2637.437,0.323615
2641.461,0.322018
2645.498,0.32084
2649.547,0.3163
2653.609,0.316229
2657.682,0.31102
2661.768,0.3089844
2665.867,0.315388
2669.978,0.3117054
2674.102,0.297809
2678.238,0.298492
2682.387,0.280996
2686.549,0.271957
2690.724,0.256834
2694.911,0.250976
2699.112,0.22859
2703.325,0.216966
2707.552,0.20849
2711.791,0.20686
2716.044,0.180807
2720.31,0.185701
2724.589,0.162792
2728.882,0.125911
2733.188,0.106052
2737.508,0.08913566
2741.841,0.07712837
2746.188,0.05467697
2750.549,0.04573694
2754.923,0.04405116
2759.311,0.03661938
2763.713,0.03495573
2768.129,0.03323366
2772.559,0.03048485
2777.003,0.02761051
2781.461,0.02755552
2785.934,0.02788302
2790.42,0.0264606
2794.922,0.02565726
2799.437,0.02509012
2803.967,0.02760029
2808.512,0.0249
2813.071,0.02428634
2817.645,0.02466559
2822.233,0.02555825
2826.837,0.02454948
2831.455,0.02441856
2836.089,0.0250769
2840.737,0.02445555
2845.401,0.02339783
2850.08,0.02353529
2854.774,0.02356939
2859.484,0.02333943
2864.209,0.02329287
2868.949,0.02354336
2873.705,0.02310672
2878.477,0.02226896
2883.265,0.0222886
2888.068,0.02250016
2892.887,0.02233307
2897.723,0.02179296
2902.574,0.02148807
2907.441,0.02116657
2912.325,0.02096246
2917.225,0.02171752
2922.142,0.0214773
2927.075,0.02074275
2932.024,0.02061963
2936.99,0.02085537
2941.973,0.02101509
2946.973,0.02194222
2951.989,0.02120663
2957.023,0.02185809
2962.073,0.02104533
2967.141,0.02117384
2972.226,0.02163742
2977.328,0.02283325
2982.448,0.02186594
2987.586,0.02176301
2992.74,0.02306301
2997.913,0.02244443
3003.103,0.02352012
3008.312,0.02274498
3013.538,0.02362278
3018.782,0.02370937
3024.044,0.02398394
3029.325,0.02552487
3034.624,0.02705105
3039.942,0.02533351
3045.278,0.02678266
3050.632,0.02570084
3056.006,0.02601819
3061.398,0.02691659
3066.809,0.02845335
3072.239,0.02737562
3077.689,0.02789953
3083.157,0.02818062
3088.645,0.02923898
3094.153,0.02901694
3099.679,0.03004495
3105.226,0.03008876
3110.792,0.03018066
3116.378,0.03052031
3121.985,0.03089702
3127.611,0.03126665
3133.257,0.03184314
3138.924,0.03224302
3144.611,0.03307523
3150.319,0.03363762
3156.047,0.03470236
3161.796,0.03513499
3167.566,0.03564928
3173.356,0.03695118
3179.168,0.03897802
3185.001,0.03988602
3190.856,0.03976162
3196.731,0.04179518
3202.629,0.04185729
3208.548,0.04315958
3214.488,0.04741605
3220.451,0.04817156
3226.436,0.04814493
3232.443,0.04842334
3238.472,0.04983695
3244.523,0.05193028
3250.598,0.05442923
3256.694,0.05754883
3262.814,0.05663371
3268.956,0.05836681
3275.122,0.05950458
3281.31,0.06104188
3287.522,0.06313243
3293.757,0.06540205
3300.016,0.06708375
3306.299,0.06805937
3312.605,0.06885795
3318.936,0.07060068
3325.29,0.07354891
3331.669,0.07613974
3338.072,0.07438219
3344.499,0.07595
3350.952,0.07820315
3357.429,0.0778124
3363.931,0.07939144
3370.458,0.07998926
3377.01,0.0795177
3383.588,0.08124081
3390.191,0.0832174
3396.82,0.08536624
3403.475,0.08700156
3410.156,0.0871675
3416.862,0.08620831
3423.596,0.08950919
3430.355,0.09248906
3437.141,0.096855
3443.954,0.101999
3450.794,0.101934
3457.661,0.103813
3464.556,0.106488
3471.477,0.106965
3478.426,0.108075
3485.403,0.10958
3492.408,0.11323
3499.441,0.112182
3506.502,0.114343
3513.592,0.118692
3520.71,0.123552
3527.857,0.127453
3535.032,0.132328
3542.237,0.133347
3549.471,0.135518
3556.735,0.138085
3564.028,0.140688
3571.351,0.143758
3578.704,0.145792
3586.088,0.148866
3593.501,0.151422
3600.946,0.153514
3608.421,0.155116
3615.926,0.15827
3623.463,0.159906
3631.032,0.161741
3638.632,0.164017
3646.263,0.166426
3653.927,0.169278
3661.623,0.170792
3669.351,0.173392
3677.111,0.175526
3684.905,0.178763
3692.731,0.180537
3700.59,0.182924
3708.483,0.185662
3716.409,0.188088
3724.37,0.19062
3732.364,0.192987
3740.392,0.1959312
3748.455,0.1989047
3756.553,0.200696
3764.685,0.203262
3772.853,0.205611
3781.056,0.207416
3789.294,0.209425
3797.568,0.21148
3805.879,0.213666
3814.225,0.215236
3822.609,0.216947
3831.029,0.218643
3839.486,0.220216
3847.98,0.221465
3856.512,0.223619
3865.081,0.2259217
3873.689,0.227883
3882.334,0.229549
3891.019,0.231363
3899.742,0.233368
3908.504,0.235125
3917.305,0.2368503
3926.146,0.238028
3935.027,0.239284
3943.948,0.240063
3952.909,0.240573
3961.911,0.240781
3970.954,0.2415512
3980.038,0.242994
3989.163,0.244918
3998.33,0.248127
4007.54,0.252369
4016.791,0.256654
4026.086,0.260392
4035.423,0.2643841
4044.804,0.268541
4054.228,0.272556
4063.695,0.276591
4073.207,0.280508
4082.764,0.28409
4092.365,0.287114
4102.012,0.290231
4111.703,0.293694
4121.441,0.29679
4131.224,0.300043
4141.054,0.303364
4150.931,0.307198
4160.854,0.310579
4170.826,0.31377
4180.844,0.317071
4190.911,0.321662
4201.026,0.333972
4211.19,0.361228
4221.404,0.396191
4231.666,0.4250729
4241.979,0.432406
4252.341,0.403734
4262.754,0.39355
4273.219,0.4204885
4283.734,0.421535
4294.301,0.4219875
4304.92,0.4167422
4315.592,0.407418
4326.317,0.398313
4337.095,0.392219
4347.926,0.389473
4358.811,0.389458
4369.751,0.391056
4380.746,0.393361
4391.796,0.398109
4402.902,0.40261
4414.064,0.406937
4425.282,0.411036
4436.558,0.414768
4447.891,0.418437
4459.281,0.42237
4470.73,0.425829
4482.238,0.428977
4493.805,0.432135
4505.431,0.435327
4517.118,0.438231
4528.865,0.441764
4540.674,0.445748
4552.543,0.448126
4564.475,0.451869
4576.47,0.455497
4588.527,0.459009
4600.648,0.461982
4612.833,0.465268
4625.082,0.4686915
4637.397,0.472363
4649.777,0.4754347
4662.223,0.479163
4674.735,0.482886
4687.315,0.48731
4699.962,0.49088
4712.678,0.494997
4725.463,0.498928
4738.316,0.502044
4751.24,0.506183
4764.234,0.510058
4777.299,0.514872
4790.436,0.518716
4803.645,0.520443
4816.927,0.523489
4830.283,0.526816
4843.712,0.531614
4857.216,0.533279
4870.795,0.536569
4884.451,0.539981
4898.182,0.544429
4911.991,0.5464878
4925.878,0.549227
4939.844,0.552565
4953.888,0.5580343
4968.013,0.558812
4982.218,0.561105
4996.504,0.564043
5010.872,0.568364
5025.323,0.575235
5039.857,0.572875
5054.475,0.575951
5069.179,0.579711
5083.967,0.587351
5098.842,0.586529
5113.804,0.59018
5128.854,0.592623
5143.992,0.60407
5159.22,0.599881
5174.538,0.601188
5189.947,0.605171
5205.448,0.616775
5221.041,0.614541
5236.728,0.616312
5252.51,0.614947
5268.386,0.619103
5284.358,0.62647
5300.428,0.627423
5316.595,0.626006
5332.86,0.628772
5349.226,0.653792
5365.692,0.638026
5382.259,0.638254
5398.928,0.640756
5415.701,0.665749
5432.579,0.6603542
5449.561,0.662548
5466.65,0.693758
5483.846,0.694326
5501.15,0.701359
5518.564,0.742267
5536.087,0.797671
5553.723,0.9255768
5571.47,0.619645
5589.332,0.452473
5607.307,0.491838
5625.399,0.5287933
5643.607,0.56266
5661.934,0.567458
5680.379,0.585934
5698.945,0.59444
5717.633,0.612855
5736.443,0.615226
5755.377,0.626088
5774.436,0.633463
5793.621,0.619148
5812.934,0.644104
5832.376,0.647852
5851.948,0.643164
5871.652,0.669057
5891.488,0.675462
5911.459,0.651402
5931.565,0.684294
5951.809,0.6657
5972.19,0.6774764
5992.711,0.676442
6013.374,0.671161
6034.179,0.684046
6055.129,0.705332
6076.224,0.694396
6097.466,0.688889
6118.857,0.697332
6140.398,0.6917582
6162.091,0.699317
6183.938,0.707891
6205.94,0.696852
6228.099,0.699967
6250.416,0.701662
6272.893,0.705631
6295.533,0.707174
6318.336,0.710986
6341.304,0.733177
6364.44,0.734179
6387.745,0.732903
6411.221,0.779303
6434.869,0.7467146
6458.693,0.748111
6482.693,0.787335
6506.872,0.763771
6531.231,0.760119
6555.774,0.780015
6580.501,0.786141
6605.415,0.774991
6630.518,0.803612
6655.812,0.769632
6681.3,0.775654
6706.983,0.785003
6732.864,0.767747
6758.945,0.774479
6785.229,0.792748
6811.718,0.776745
6838.413,0.7846942
6865.319,0.797479
6892.437,0.780189
6919.769,0.775568
6947.319,0.791062
6975.089,0.787111
7003.081,0.787549
7031.298,0.80084
7059.743,0.793761
7088.419,0.791715
7117.329,0.797671
7146.475,0.809526
7175.86,0.805577
7205.487,0.809128
7235.36,0.80647
7265.481,0.816099
7295.854,0.813656
7326.481,0.821939
7357.366,0.817988
7388.512,0.81879
7419.922,0.82048
7451.601,0.829143
7483.55,0.826531
7515.774,0.826828
7548.277,0.829507
7581.061,0.833802
7614.131,0.834539
7647.491,0.835682
7681.143,0.836878
7715.093,0.838709
7749.343,0.840502
7783.899,0.841254
7818.764,0.8425233
7853.942,0.844643
7889.437,0.846198
7925.254,0.848451
7961.398,0.8494999
7997.872,0.850812
8034.682,0.852626
8071.832,0.85425
8109.326,0.8554844
8147.169,0.856528
8185.368,0.857229
8223.925,0.857856
8262.847,0.858374
8302.139,0.858987
8341.805,0.859661
8381.852,0.8608057
8422.285,0.861883
8463.109,0.862202
8504.331,0.862834
8545.955,0.863573
8587.989,0.8643649
8630.437,0.865359
8673.307,0.866331
8716.604,0.867181
8760.335,0.867827
8804.507,0.868747
8849.125,0.869539
8894.198,0.870471
8939.732,0.87106
8985.733,0.871624
9032.21,0.872335
9079.17,0.8725607
9126.62,0.872896
9174.568,0.872727
9223.022,0.872702
9271.99,0.872928
9321.48,0.872977
9371.5,0.873312
9422.06,0.8736909
9473.167,0.874707
9524.832,0.875727
9577.062,0.877035
9629.868,0.878052
9683.259,0.879241
9737.244,0.880522
9791.834,0.882086
9847.039,0.883364
9902.869,0.884587
9959.336,0.8854251
10016.449,0.886323
10074.221,0.887407
10132.662,0.888335
10191.784,0.889144
10251.6,0.8901187
10312.121,0.890896
10373.36,0.891707
10435.331,0.892534
10498.045,0.893376
10561.517,0.8939847
10625.761,0.894379
10690.79,0.894722
10756.619,0.894525
10823.264,0.894206
10890.738,0.893637
10959.058,0.892999
11028.24,0.892096
11098.301,0.891223
11169.256,0.891121
11241.124,0.891021
11313.921,0.891209
11387.667,0.89187
11462.38,0.892394
11538.079,0.893183
11614.783,0.893366
11692.513,0.893575
11771.29,0.893826
11851.134,0.894443
11932.068,0.8946
12014.114,0.895039
12097.296,0.894468
12181.636,0.893413
12267.16,0.893832
12353.892,0.894531
12441.859,0.894566
12531.086,0.894439
12621.601,0.894605
12713.432,0.894784
12806.608,0.8947656
12901.159,0.895377
12997.116,0.895053
13094.51,0.894539
13193.373,0.893905
13293.74,0.893917
13395.644,0.893811
13499.121,0.8941606
13604.208,0.893305
13710.943,0.8933953
13819.365,0.892701
13929.515,0.891414
14041.433,0.889697
14155.163,0.886977
14270.749,0.883056
14388.237,0.878233
14507.674,0.872756
14629.109,0.863011
14752.594,0.84878
14878.179,0.833791
15005.92,0.809708
15135.871,0.771439
15268.092,0.717741
15402.642,0.645032
15539.583,0.56226
15678.979,0.47129
15820.897,0.392178
15965.407,0.335075