File: csv_library/FTIR_PLG_02.csv
Database of Origin,University of Winnipeg Spectrophotometer Facility
Sample Description,IR Reflectance spectra of plagioclase with a Bruker Vertex 70 FTIR. See Master Plagioclase in PSF database for additional info.
Date Added,2016-11-22 04:00:06.277792

Data ID,FTIR_PLG_02
Sample ID,PLG103
Mineral Name,Plagioclase
Grain Size,<45 um
Viewing Geometry,"i30, e0"
Resolution,7.71cm-1
Material Class,Tectosilicate

Wavelength
1670.16,0.52384
1672.32,0.52352
1674.48,0.52329
1676.64,0.52359
1678.81,0.52397
1680.99,0.52405
1683.18,0.52372
1685.36,0.52326
1687.56,0.52318
1689.76,0.52353
1691.96,0.52384
1694.18,0.5236
1696.39,0.52316
1698.62,0.52278
1700.85,0.52248
1703.08,0.52256
1705.32,0.52238
1707.57,0.52214
1709.82,0.5224
1712.08,0.52254
1714.35,0.52272
1716.62,0.52302
1718.89,0.52298
1721.18,0.52266
1723.46,0.52243
1725.76,0.52272
1728.06,0.52291
1730.37,0.52246
1732.68,0.52213
1735,0.52227
1737.33,0.52237
1739.66,0.52244
1742,0.52249
1744.34,0.52234
1746.69,0.52219
1749.05,0.52204
1751.41,0.522
1753.78,0.522
1756.16,0.52164
1758.54,0.52129
1760.93,0.52123
1763.33,0.52144
1765.73,0.52153
1768.14,0.52138
1770.55,0.52157
1772.98,0.5218
1775.4,0.52161
1777.84,0.5213
1780.28,0.52078
1782.73,0.52032
1785.19,0.52058
1787.65,0.52101
1790.12,0.52099
1792.59,0.52098
1795.08,0.5211
1797.57,0.52098
1800.06,0.52103
1802.57,0.52126
1805.08,0.52128
1807.59,0.52137
1810.12,0.52179
1812.65,0.52222
1815.19,0.52239
1817.73,0.52286
1820.29,0.52308
1822.85,0.52245
1825.42,0.52268
1827.99,0.52386
1830.57,0.52423
1833.16,0.52422
1835.76,0.5251
1838.36,0.52588
1840.97,0.5252
1843.59,0.52442
1846.22,0.52504
1848.85,0.52471
1851.49,0.52398
1854.14,0.52452
1856.8,0.52465
1859.46,0.5239
1862.13,0.52283
1864.81,0.52318
1867.5,0.52525
1870.19,0.527
1872.9,0.52657
1875.61,0.52415
1878.33,0.52153
1881.05,0.52044
1883.79,0.52054
1886.53,0.52046
1889.28,0.52025
1892.04,0.51958
1894.8,0.51924
1897.58,0.52049
1900.36,0.52127
1903.15,0.5205
1905.95,0.51915
1908.76,0.51792
1911.57,0.51749
1914.39,0.51696
1917.23,0.51665
1920.07,0.51694
1922.92,0.51663
1925.77,0.51627
1928.64,0.51616
1931.51,0.5157
1934.4,0.51535
1937.29,0.51538
1940.19,0.51533
1943.1,0.51525
1946.01,0.51534
1948.94,0.51536
1951.88,0.51527
1954.82,0.51515
1957.77,0.51503
1960.73,0.5149
1963.7,0.51491
1966.68,0.51528
1969.67,0.51555
1972.67,0.51546
1975.68,0.51523
1978.69,0.51504
1981.72,0.51497
1984.76,0.51501
1987.8,0.51508
1990.85,0.51527
1993.92,0.51557
1996.99,0.51584
2000.07,0.51601
2003.16,0.5161
2006.26,0.51595
2009.37,0.51565
2012.49,0.51556
2015.62,0.51548
2018.76,0.51523
2021.91,0.51526
2025.07,0.51546
2028.24,0.51557
2031.42,0.51576
2034.61,0.51604
2037.81,0.51616
2041.02,0.51596
2044.24,0.51553
2047.46,0.51514
2050.7,0.51487
2053.95,0.51486
2057.21,0.51522
2060.48,0.51545
2063.77,0.51529
2067.06,0.51517
2070.36,0.51526
2073.67,0.51528
2077,0.51521
2080.33,0.51525
2083.67,0.51532
2087.03,0.51531
2090.4,0.51533
2093.77,0.51529
2097.16,0.51519
2100.56,0.51505
2103.97,0.51488
2107.39,0.5149
2110.82,0.51503
2114.27,0.51494
2117.72,0.51469
2121.19,0.51446
2124.66,0.51438
2128.15,0.51456
2131.65,0.51464
2135.16,0.51442
2138.69,0.5143
2142.22,0.51436
2145.77,0.51432
2149.33,0.51417
2152.9,0.5139
2156.48,0.51359
2160.08,0.51336
2163.68,0.51315
2167.3,0.51281
2170.93,0.51251
2174.57,0.51214
2178.23,0.51157
2181.89,0.51096
2185.57,0.51031
2189.27,0.50952
2192.97,0.50883
2196.69,0.50869
2200.42,0.50892
2204.16,0.50917
2207.91,0.5096
2211.68,0.51026
2215.46,0.51078
2219.26,0.51102
2223.06,0.51113
2226.88,0.51122
2230.71,0.51141
2234.56,0.51154
2238.42,0.51133
2242.29,0.51115
2246.18,0.51139
2250.08,0.51151
2253.99,0.51128
2257.92,0.51109
2261.86,0.51115
2265.813,0.51127
2269.78,0.51111
2273.76,0.51085
2277.76,0.51078
2281.77,0.51089
2285.79,0.51106
2289.83,0.51111
2293.89,0.51088
2297.95,0.51061
2302.03,0.51037
2306.13,0.5102
2310.24,0.51023
2314.37,0.51018
2318.51,0.51004
2322.66,0.50979
2326.83,0.50944
2331.02,0.5092
2335.22,0.50909
2339.43,0.509
2343.66,0.50881
2347.91,0.50846
2352.17,0.50829
2356.45,0.5084
2360.74,0.50854
2365.05,0.50855
2369.37,0.50846
2373.71,0.50835
2378.06,0.50811
2382.44,0.50769
2386.82,0.50754
2391.23,0.50777
2395.65,0.50782
2400.08,0.50749
2404.54,0.50692
2409.01,0.5064
2413.49,0.50618
2417.99,0.50593
2422.51,0.50552
2427.05,0.50516
2431.6,0.50482
2436.17,0.50447
2440.76,0.5042
2445.37,0.50412
2449.99,0.50428
2454.63,0.50437
2459.29,0.50417
2463.96,0.5039
2468.66,0.50373
2473.37,0.50349
2478.1,0.50321
2482.84,0.50309
2487.61,0.50307
2492.39,0.50303
2497.2,0.50289
2502.02,0.50293
2506.86,0.50309
2511.72,0.50329
2516.59,0.50351
2521.49,0.5037
2526.4,0.50429
2531.34,0.50509
2536.29,0.50558
2541.26,0.50648
2546.26,0.5074
2551.27,0.50722
2556.3,0.50827
2561.35,0.51139
2566.43,0.5126
2571.52,0.51255
2576.63,0.51386
2581.76,0.51623
2586.92,0.51789
2592.09,0.51815
2597.28,0.51791
2602.5,0.51868
2607.74,0.5185
2612.99,0.51772
2618.27,0.51666
2623.57,0.51488
2628.89,0.51401
2634.24,0.50936
2639.6,0.50493
2644.99,0.50438
2650.4,0.50554
2655.83,0.50841
2661.28,0.5142
2666.76,0.5195
2672.26,0.51756
2677.779,0.50902
2683.32,0.49752
2688.89,0.48602
2694.48,0.47206
2700.09,0.45772
2705.73,0.44875
2711.39,0.44007
2717.08,0.42657
2722.78,0.40408
2728.52,0.38195
2734.27,0.37013
2740.05,0.35978
2745.86,0.34789
2751.69,0.33958
2757.54,0.33474
2763.42,0.33436
2769.327,0.33646
2775.26,0.33874
2781.21,0.34079
2787.19,0.34073
2793.2,0.33903
2799.23,0.33821
2805.29,0.33653
2811.38,0.33317
2817.49,0.33002
2823.63,0.32703
2829.79,0.32495
2835.98,0.32318
2842.2,0.32051
2848.45,0.31838
2854.72,0.31709
2861.03,0.31571
2867.36,0.3144
2873.71,0.31316
2880.1,0.31169
2886.51,0.31037
2892.96,0.30959
2899.43,0.30903
2905.93,0.30795
2912.46,0.30679
2919.02,0.30617
2925.61,0.30562
2932.23,0.30507
2938.88,0.3048
2945.56,0.30461
2952.27,0.30462
2959.01,0.30499
2965.78,0.30554
2972.58,0.30611
2979.41,0.30665
2986.28,0.30749
2993.18,0.30859
3000.1,0.30959
3007.07,0.31052
3014.06,0.31147
3021.084,0.31243
3028.14,0.31349
3035.23,0.31472
3042.36,0.31609
3049.52,0.31753
3056.71,0.31899
3063.94,0.32045
3071.2,0.32212
3078.49,0.32416
3085.82,0.32631
3093.19,0.32822
3100.59,0.33011
3108.02,0.33208
3115.49,0.33406
3123,0.33636
3130.54,0.33895
3138.12,0.34146
3145.74,0.34404
3153.39,0.34666
3161.09,0.34903
3168.81,0.35118
3176.58,0.35333
3184.39,0.35574
3192.23,0.35818
3200.11,0.36042
3208.03,0.36252
3215.99,0.36449
3223.99,0.36641
3232.03,0.3681
3240.11,0.36969
3248.23,0.3714
3256.39,0.37313
3264.6,0.37491
3272.84,0.3769
3281.13,0.37901
3289.45,0.38116
3297.82,0.38349
3306.24,0.38589
3314.69,0.38827
3323.19,0.39058
3331.74,0.39254
3340.32,0.39389
3348.95,0.3945
3357.63,0.39456
3366.35,0.3945
3375.12,0.39518
3383.93,0.39685
3392.79,0.39798
3401.69,0.39772
3410.64,0.39779
3419.64,0.40047
3428.69,0.40544
3437.79,0.4105
3446.93,0.4145
3456.12,0.41726
3465.36,0.41893
3474.65,0.42004
3483.99,0.42103
3493.38,0.42234
3502.82,0.4252
3512.32,0.42966
3521.86,0.43363
3531.46,0.43637
3541.11,0.43846
3550.81,0.44022
3560.56,0.44193
3570.37,0.44354
3580.23,0.44502
3590.15,0.44642
3600.13,0.44773
3610.15,0.44907
3620.24,0.45024
3630.38,0.45116
3640.58,0.45188
3650.83,0.45254
3661.14,0.4533
3671.52,0.45415
3681.95,0.45495
3692.44,0.45558
3702.99,0.45613
3713.6,0.45665
3724.27,0.4572
3735,0.45783
3745.79,0.45847
3756.65,0.45902
3767.57,0.45946
3778.56,0.45978
3789.61,0.45997
3800.72,0.46001
3811.9,0.4599
3823.14,0.45971
3834.45,0.45979
3845.83,0.46015
3857.28,0.46035
3868.79,0.46027
3880.37,0.46013
3892.03,0.46017
3903.75,0.46014
3915.54,0.45991
3927.41,0.45968
3939.35,0.45942
3951.36,0.45886
3963.44,0.45799
3975.6,0.45731
3987.83,0.45719
4000.14,0.45716
4012.52,0.45689
4024.98,0.45661
4037.52,0.45649
4050.14,0.45633
4062.84,0.45589
4075.61,0.45517
4088.47,0.45436
4101.41,0.45348
4114.43,0.45264
4127.53,0.45174
4140.72,0.45082
4153.99,0.44978
4167.35,0.44857
4180.79,0.44831
4194.32,0.45347
4207.94,0.46999
4221.65,0.49291
4235.44,0.49933
4249.33,0.48495
4263.31,0.47622
4277.38,0.47668
4291.54,0.46956
4305.8,0.45302
4320.15,0.43513
4334.6,0.42132
4349.14,0.41269
4363.79,0.40723
4378.53,0.40307
4393.37,0.3996
4408.32,0.39653
4423.36,0.39373
4438.51,0.391
4453.76,0.38758
4469.12,0.38273
4484.58,0.37647
4500.16,0.36953
4515.84,0.36259
4531.626,0.35617
4547.53,0.35043
4563.54,0.34506
4579.66,0.33961
4595.9,0.3338
4612.26,0.32675
4628.73,0.31826
4645.32,0.31069
4662.03,0.30591
4678.86,0.30218
4695.82,0.29774
4712.89,0.2921
4730.09,0.28547
4747.42,0.27807
4764.87,0.27154
4782.45,0.26996
4800.17,0.27466
4818.01,0.28003
4835.99,0.28014
4854.1,0.27459
4872.35,0.26739
4890.74,0.26243
4909.26,0.26307
4927.93,0.26714
4946.74,0.26583
4965.69,0.2554
4984.79,0.24307
5004.03,0.23596
5023.43,0.23296
5042.98,0.23021
5062.68,0.2261
5082.53,0.21901
5102.54,0.21
5122.71,0.20255
5143.04,0.19686
5163.53,0.19117
5184.18,0.18579
5205,0.18142
5225.99,0.17868
5247.15,0.17873
5268.48,0.18075
5289.98,0.18286
5311.66,0.18451
5333.52,0.18553
5355.56,0.18332
5377.78,0.17655
5400.19,0.16757
5422.78,0.15794
5445.57,0.14963
5468.54,0.1423
5491.72,0.13426
5515.09,0.12584
5538.65,0.11784
5562.43,0.11218
5586.4,0.1104
5610.58,0.11093
5634.98,0.11024
5659.59,0.10718
5684.41,0.10462
5709.45,0.10416
5734.71,0.10537
5760.2,0.10751
5785.92,0.10975
5811.86,0.11204
5838.04,0.11344
5864.46,0.11284
5891.11,0.11061
5918.01,0.10891
5945.16,0.10833
5972.56,0.10689
6000.21,0.10449
6028.12,0.10293
6056.29,0.10201
6084.72,0.09989
6113.42,0.09655
6142.39,0.09265
6171.64,0.0893
6201.17,0.08755
6230.99,0.08773
6261.09,0.08898
6291.48,0.09053
6322.17,0.09278
6353.16,0.09594
6384.46,0.09868
6416.06,0.09934
6447.99,0.09751
6480.23,0.09444
6512.79,0.09003
6545.68,0.08654
6578.91,0.0837
6612.47,0.08074
6646.38,0.07805
6680.64,0.0755
6715.26,0.07249
6750.23,0.06981
6785.58,0.0681
6821.29,0.06656
6857.38,0.06388
6893.86,0.06014
6930.72,0.05708
6967.98,0.05462
7005.65,0.05223
7043.72,0.04938
7082.21,0.04587
7121.13,0.04219
7160.47,0.03803
7200.25,0.0339
7240.48,0.03044
7281.15,0.02746
7322.29,0.02467
7363.89,0.02211
7405.97,0.02
7448.53,0.01816
7491.59,0.01622
7535.15,0.01441
7579.21,0.01283
7623.79,0.01149
7668.91,0.01061
7714.55,0.01014
7760.75,0.00991
7807.5,0.01025
7854.82,0.01142
7902.71,0.01327
7951.2,0.01583
8000.28,0.01946
8049.97,0.02453
8100.28,0.03136
8151.23,0.03938
8202.82,0.0467
8255.06,0.05259
8307.98,0.05795
8361.58,0.06198
8415.88,0.06341
8470.88,0.06321
8526.61,0.06287
8583.08,0.06296
8640.3,0.06293
8698.29,0.06136
8757.06,0.05826
8816.63,0.05502
8877.02,0.052
8938.24,0.04875
9000.31,0.04621
9063.25,0.04618
9127.08,0.04803
9191.81,0.04863
9257.46,0.0468
9324.07,0.04598
9391.63,0.04876
9460.18,0.05502
9529.74,0.06458
9600.33,0.07286
9671.98,0.07317
9744.7,0.06771
9818.52,0.06593
9893.47,0.0696
9969.58,0.07182
10046.9,0.07032
10125.4,0.06675
10205.1,0.06193
10286.1,0.05746
10368.4,0.05547
10452,0.05675
10537,0.0603
10623.3,0.06456
10711.1,0.06896
10800.4,0.07387
10891.1,0.07907
10983.4,0.08377
11077.3,0.08803
11172.8,0.09184
11270,0.09493
11368.8,0.0973
11469.4,0.09897
11571.8,0.09967
11676.1,0.09918
11782.2,0.09764
11890.3,0.09492
12000.4,0.09024
12112.6,0.08248
12226.8,0.07147
12343.3,0.05774
12462,0.04366
12583,0.0342
12706.3,0.03132
12832.1,0.03205
12960.5,0.03385
13091.4,0.03477
13224.9,0.03396
13361.3,0.03353
13500.5,0.03373
13642.6,0.03333
13787.7,0.03454
13936,0.03928
14087.4,0.04548
14242.3,0.04997
14400.5,0.05103
14562.3,0.04843
14727.8,0.04417
14897.1,0.04172
15070.3,0.04172
15247.6,0.04017
15429.1,0.03552
15615,0.03182
15805.4,0.03239
16000.6,0.03582
16200.6,0.03884
16405.6,0.04216
16616,0.04611
16831.8,0.04735
17053.2,0.04593
17280.6,0.04434
17514.1,0.04323
17754,0.04224
18000.6,0.04088
18254.2,0.04023
18514.9,0.04125
18783.3,0.04198
19059.5,0.04211
19344,0.0437
19637,0.045
19939.2,0.04319
20250.7,0.04109
20572.1,0.04017
20904,0.03718
21246.6,0.03313
21600.8,0.03256
21966.9,0.03799
22345.6,0.04926
22737.6,0.05838
23143.7,0.05958
23564.5,0.05821
24000.8,0.05624
24453.7,0.05006
24923.9,0.04021
25412.6,0.04833