File: csv_library/FTIR_LNR_3_8.csv
Database of Origin,University of Winnipeg Spectrophotometer Facility
Sample Description,Lunar samples/ analogues and glasses - D and P 102F FTIR spectra (from PSF) NASA Apollo lunar samples
Other Information,diffuse gold puck 100 spectra averaged
Date Added,2018-07-23 21:03:11.5677

Data ID,FTIR_LNR_3_8
Sample ID,apollo 11 ID# 10084 2008 162
Grain Size,<1mm?
Viewing Geometry,i=30/ e=0
Resolution,3 cm-1
Composition,regolith sample

Wavelength
2.001142,0.157536
2.003474,0.157175
2.005812,0.157748
2.008155,0.157151
2.010504,0.15794
2.012858,0.157484
2.015217,0.158461
2.017582,0.157847
2.019952,0.158328
2.022328,0.159083
2.024709,0.158067
2.027096,0.158403
2.029488,0.158768
2.031886,0.158998
2.034289,0.158705
2.036698,0.158469
2.039113,0.158651
2.041533,0.159145
2.043959,0.159393
2.046391,0.159319
2.048828,0.158899
2.051271,0.159288
2.05372,0.159377
2.056175,0.160165
2.058635,0.160143
2.061101,0.160087
2.063573,0.16064
2.066051,0.161256
2.068534,0.161044
2.071024,0.160858
2.073519,0.161886
2.07602,0.16135
2.078528,0.160764
2.081041,0.16186
2.08356,0.161837
2.086085,0.161951
2.088617,0.1622298
2.091154,0.162581
2.093697,0.16237
2.096247,0.162557
2.098803,0.162914
2.101364,0.162611
2.103932,0.16256
2.106506,0.16289
2.109087,0.162088
2.111673,0.162479
2.114266,0.162382
2.116865,0.1623849
2.119471,0.162405
2.122082,0.162329
2.1247,0.163804
2.127325,0.163957
2.129956,0.16452
2.132593,0.163933
2.135237,0.164354
2.137887,0.164685
2.140544,0.164573
2.143207,0.164941
2.145876,0.165013
2.148553,0.16556
2.151235,0.165345
2.153925,0.166274
2.156621,0.166498
2.159324,0.166386
2.162033,0.166667
2.164749,0.166973
2.167472,0.167711
2.170202,0.168412
2.172938,0.168497
2.175682,0.169014
2.178432,0.169918
2.181189,0.169137
2.183952,0.169311
2.186723,0.170027
2.189501,0.169744
2.192285,0.170101
2.195077,0.170226
2.197876,0.171386
2.200682,0.171526
2.203494,0.171459
2.206314,0.17215
2.209141,0.1725452
2.211975,0.172575
2.214817,0.173037
2.217665,0.173377
2.220521,0.174047
2.223384,0.174051
2.226254,0.173543
2.229132,0.17387
2.232017,0.174187
2.23491,0.174574
2.237809,0.174533
2.240717,0.175582
2.243631,0.176088
2.246554,0.176625
2.249483,0.175794
2.252421,0.175897
2.255365,0.175979
2.258318,0.176477
2.261278,0.176775
2.264246,0.177216
2.267221,0.176616
2.270204,0.177521
2.273195,0.177952
2.276194,0.1774
2.279201,0.177792
2.282215,0.178643
2.285237,0.178924
2.288268,0.178599
2.291306,0.178685
2.294352,0.178746
2.297406,0.178954
2.300468,0.178563
2.303539,0.180628
2.306617,0.180975
2.309703,0.179835
2.312798,0.18044
2.315901,0.180295
2.319012,0.180695
2.322131,0.18124
2.325259,0.181494
2.328395,0.181693
2.33154,0.181833
2.334692,0.182119
2.337854,0.1822
2.341023,0.182195
2.344201,0.182218
2.347388,0.182771
2.350583,0.18257
2.353787,0.183623
2.357,0.183363
2.360221,0.183394
2.363451,0.183266
2.36669,0.184077
2.369937,0.184213
2.373194,0.184699
2.376459,0.184915
2.379733,0.185137
2.383016,0.185228
2.386308,0.185398
2.389609,0.186099
2.392919,0.185863
2.396238,0.186151
2.399566,0.185913
2.402903,0.186235
2.40625,0.186105
2.409606,0.186061
2.412971,0.186765
2.416345,0.187258
2.419729,0.187733
2.423122,0.187299
2.426524,0.187628
2.429936,0.187449
2.433358,0.188101
2.436789,0.188756
2.440229,0.188178
2.443679,0.189794
2.447139,0.189079
2.450609,0.189512
2.454088,0.189356
2.457577,0.189965
2.461076,0.189646
2.464585,0.190259
2.468104,0.190523
2.471632,0.190951
2.475171,0.190995
2.47872,0.191032
2.482278,0.191152
2.485847,0.19168
2.489427,0.1920365
2.493016,0.192514
2.496615,0.192878
2.500225,0.193252
2.503845,0.19306
2.507476,0.193866
2.511117,0.193723
2.514769,0.194162
2.518431,0.194629
2.522103,0.19538
2.525787,0.195501
2.52948,0.195774
2.533185,0.196776
2.5369,0.197269
2.540627,0.197069
2.544364,0.198016
2.548112,0.198953
2.55187,0.200629
2.55564,0.198488
2.559421,0.200871
2.563213,0.203637
2.567016,0.199571
2.570831,0.201054
2.574656,0.20378
2.578493,0.201449
2.582342,0.205562
2.586201,0.204214
2.590072,0.203177
2.593955,0.214137
2.597849,0.20241
2.601755,0.204465
2.605672,0.209821
2.609601,0.205389
2.613542,0.203871
2.617495,0.209311
2.621459,0.209814
2.625435,0.208405
2.629424,0.209693
2.633424,0.207482
2.637437,0.205983
2.641461,0.207011
2.645498,0.208126
2.649547,0.206042
2.653609,0.209412
2.657682,0.20763
2.661768,0.210163
2.665867,0.219706
2.669978,0.218772
2.674102,0.208254
2.678238,0.214544
2.682387,0.208614
2.686549,0.209755
2.690724,0.207961
2.694911,0.21269
2.699112,0.206702
2.703325,0.206401
2.707552,0.204973
2.711791,0.208271
2.716044,0.199576
2.72031,0.205413
2.724589,0.200021
2.728882,0.192228
2.733188,0.189707
2.737508,0.187993
2.741841,0.190111
2.746188,0.184771
2.750549,0.183715
2.754923,0.185389
2.759311,0.181907
2.763713,0.183334
2.768129,0.181354
2.772559,0.18135
2.777003,0.180451
2.781461,0.180132
2.785934,0.179637
2.79042,0.179395
2.794922,0.179171
2.799437,0.178437
2.803967,0.180764
2.808512,0.178812
2.813071,0.177804
2.817645,0.178327
2.822233,0.178761
2.826837,0.17868
2.831455,0.177958
2.836089,0.179018
2.840737,0.177801
2.845401,0.179102
2.85008,0.178337
2.854774,0.179027
2.859484,0.178934
2.864209,0.179146
2.868949,0.17922
2.873705,0.178861
2.878477,0.178636
2.883265,0.178365
2.888068,0.178901
2.892887,0.179307
2.897723,0.179085
2.902574,0.178446
2.907441,0.1787
2.912325,0.178401
2.917225,0.180317
2.922142,0.179257
2.927075,0.178054
2.932024,0.178432
2.93699,0.179271
2.941973,0.179272
2.946973,0.1815
2.951989,0.177723
2.957023,0.180966
2.962073,0.178723
2.967141,0.179394
2.972226,0.179523
2.977328,0.182108
2.982448,0.179515
2.987586,0.180214
2.99274,0.182206
2.997913,0.181004
3.003103,0.182708
3.008312,0.181798
3.013538,0.182826
3.018782,0.182856
3.024044,0.182696
3.029325,0.184158
3.034624,0.186987
3.039942,0.185463
3.045278,0.18696
3.050632,0.185845
3.056006,0.186208
3.061398,0.187632
3.066809,0.188483
3.072239,0.187772
3.077689,0.188147
3.083157,0.188616
3.088645,0.190319
3.094153,0.189863
3.099679,0.19062
3.105226,0.189506
3.110792,0.189731
3.116378,0.19008
3.121985,0.190242
3.127611,0.190403
3.133257,0.190346
3.138924,0.190467
3.144611,0.190985
3.150319,0.191429
3.156047,0.191593
3.161796,0.192212
3.167566,0.19248
3.173356,0.192692
3.179168,0.19407
3.185001,0.19283
3.190856,0.193459
3.196731,0.194947
3.202629,0.195057
3.208548,0.194822
3.214488,0.198766
3.220451,0.198346
3.226436,0.198527
3.232443,0.19705
3.238472,0.197299
3.244523,0.19942
3.250598,0.199397
3.256694,0.201844
3.262814,0.198455
3.268956,0.200126
3.275122,0.199064
3.28131,0.200133
3.287522,0.201263
3.293757,0.200986
3.300016,0.202109
3.306299,0.202891
3.312605,0.201995
3.318936,0.202932
3.32529,0.203774
3.331669,0.205724
3.338072,0.203199
3.344499,0.2040627
3.350952,0.20519
3.357429,0.20306
3.363931,0.204555
3.370458,0.2040987
3.37701,0.203308
3.383588,0.204776
3.390191,0.205387
3.39682,0.20763
3.403475,0.20815
3.410156,0.208159
3.416862,0.208013
3.423596,0.211237
3.430355,0.211256
3.437141,0.213059
3.443954,0.217551
3.450794,0.214256
3.457661,0.215237
3.464556,0.217278
3.471477,0.216946
3.478426,0.217745
3.485403,0.218159
3.492408,0.222619
3.499441,0.220197
3.506502,0.221785
3.513592,0.223151
3.52071,0.224345
3.527857,0.224953
3.535032,0.229391
3.542237,0.228111
3.549471,0.228749
3.556735,0.230039
3.564028,0.231528
3.571351,0.233576
3.578704,0.233976
3.586088,0.236234
3.593501,0.236561
3.600946,0.23828
3.608421,0.238276
3.615926,0.240875
3.623463,0.24105
3.631032,0.24199
3.638632,0.243312
3.646263,0.244685
3.653927,0.246714
3.661623,0.24733
3.669351,0.249232
3.677111,0.251195
3.684905,0.253471
3.692731,0.254651
3.70059,0.256055
3.708483,0.258104
3.716409,0.260036
3.72437,0.26223
3.732364,0.264201
3.740392,0.26634
3.748455,0.268678
3.756553,0.269908
3.764685,0.272362
3.772853,0.27473
3.781056,0.27715
3.789294,0.279251
3.797568,0.281845
3.805879,0.284294
3.814225,0.286984
3.822609,0.288959
3.831029,0.291524
3.839486,0.293678
3.84798,0.296018
3.856512,0.298599
3.865081,0.300623
3.873689,0.303348
3.882334,0.305728
3.891019,0.30807
3.899742,0.311179
3.908504,0.313357
3.917305,0.316493
3.926146,0.319204
3.935027,0.322421
3.943948,0.3252178
3.952909,0.328846
3.961911,0.33247
3.970954,0.336532
3.980038,0.340197
3.989163,0.343446
3.99833,0.346259
4.00754,0.348702
4.016791,0.351919
4.026086,0.35542
4.035423,0.359255
4.044804,0.362769
4.054228,0.366907
4.063695,0.371257
4.073207,0.376109
4.082764,0.38014
4.092365,0.3853
4.102012,0.390191
4.111703,0.395544
4.121441,0.401208
4.131224,0.405814
4.141054,0.411859
4.150931,0.417208
4.160854,0.422951
4.170826,0.428845
4.180844,0.434716
4.190911,0.440723
4.201026,0.447136
4.21119,0.454796
4.221404,0.463051
4.231666,0.470795
4.241979,0.47767
4.252341,0.481667
4.262754,0.487749
4.273219,0.495954
4.283734,0.50363
4.294301,0.510009
4.30492,0.517581
4.315592,0.523269
4.326317,0.530505
4.337095,0.536524
4.347926,0.543952
4.358811,0.553273
4.369751,0.560819
4.380746,0.568741
4.391796,0.576023
4.402902,0.585822
4.414064,0.593559
4.425282,0.601862
4.436558,0.609973
4.447891,0.617495
4.459281,0.624016
4.47073,0.631456
4.482238,0.637329
4.493805,0.6433378
4.505431,0.650814
4.517118,0.655857
4.528865,0.660192
4.540674,0.665156
4.552543,0.672738
4.564475,0.677222
4.57647,0.683792
4.588527,0.690664
4.600648,0.695128
4.612833,0.701362
4.625082,0.706777
4.637397,0.713208
4.649777,0.718784
4.662223,0.725806
4.674735,0.732948
4.687315,0.740381
4.699962,0.747387
4.712678,0.755676
4.725463,0.763378
4.738316,0.770877
4.75124,0.778945
4.764234,0.7864
4.777299,0.793417
4.790436,0.800173
4.803645,0.80608
4.816927,0.812071
4.830283,0.816812
4.843712,0.821151
4.857216,0.827062
4.870795,0.829901
4.884451,0.831932
4.898182,0.837368
4.911991,0.840482
4.925878,0.843697
4.939844,0.847153
4.953888,0.85064
4.968013,0.8535
4.982218,0.856699
4.996504,0.859916
5.010872,0.863786
5.025323,0.8673269
5.039857,0.870097
5.054475,0.87291
5.069179,0.876154
5.083967,0.880468
5.098842,0.882832
5.113804,0.886214
5.128854,0.889866
5.143992,0.893596
5.15922,0.895844
5.174538,0.898461
5.189947,0.902284
5.205448,0.906373
5.221041,0.909308
5.236728,0.913279
5.25251,0.915937
5.268386,0.919454
5.284358,0.923316
5.300428,0.926416
5.316595,0.930275
5.33286,0.93366
5.349226,0.941152
5.365692,0.942324
5.382259,0.948666
5.398928,0.95709
5.415701,0.972738
5.432579,0.989417
5.449561,0.0102543
5.46665,0.0110885
5.483846,0.0129123
5.50115,0.0185492
5.518564,0.687468
5.536087,0.442334
5.553723,0.557522
5.57147,0.632949
5.589332,0.680548
5.607307,0.709434
5.625399,0.733559
5.643607,0.74628
5.661934,0.766616
5.680379,0.778293
5.698945,0.790708
5.717633,0.797511
5.736443,0.807957
5.755377,0.81496
5.774436,0.820621
5.793621,0.828754
5.812934,0.833873
5.832376,0.840294
5.851948,0.846028
5.871652,0.850527
5.891488,0.853468
5.911459,0.86437
5.931565,0.860416
5.951809,0.875754
5.97219,0.875172
5.992711,0.878406
6.013374,0.880567
6.034179,0.885809
6.055129,0.882262
6.076224,0.884008
6.097466,0.89001
6.118857,0.888836
6.140398,0.89297
6.162091,0.896497
6.183938,0.894803
6.20594,0.906603
6.228099,0.912483
6.250416,0.91666
6.272893,0.920469
6.295533,0.924653
6.318336,0.926416
6.341304,0.921043
6.36444,0.92993
6.387745,0.936206
6.411221,0.9215653
6.434869,0.939556
6.458693,0.942717
6.482693,0.936865
6.506872,0.95158
6.531231,0.956608
6.555774,0.955918
6.580501,0.959587
6.605415,0.964563
6.630518,0.956997
6.655812,0.972162
6.6813,0.97169
6.706983,0.973722
6.732864,0.979321
6.758945,0.981376
6.785229,0.977358
6.811718,0.984523
6.838413,0.988616
6.865319,0.985321
6.892437,0.991133
6.919769,0.994076
6.947319,0.993426
6.975089,0.0100011
7.003081,0.0100217
7.031298,0.0100137
7.059743,0.0100762
7.088419,0.0100875
7.117329,0.0100983
7.146475,0.010115
7.17586,0.010155
7.205487,0.0101615
7.23536,0.0101958
7.265481,0.0102153
7.295854,0.0102423
7.326481,0.0102555
7.357366,0.0102889
7.388512,0.0103021
7.419922,0.0103286
7.451601,0.0103459
7.48355,0.0103752
7.515774,0.0103945
7.548277,0.0104108
7.581061,0.0104334
7.614131,0.0104548
7.647491,0.0104776
7.681143,0.0105005
7.715093,0.0105131
7.749343,0.010538
7.783899,0.0105571
7.818764,0.0105756
7.853942,0.0105877
7.889437,0.0106046
7.925254,0.0106205
7.961398,0.0106586
7.997872,0.0106895
8.034682,0.0107172
8.071832,0.0107429
8.109326,0.0107671
8.147169,0.0107944
8.185368,0.0108113
8.223925,0.0108352
8.262847,0.0108564
8.302139,0.0108736
8.341805,0.0108895
8.381852,0.0108995
8.422285,0.0109212
8.463109,0.0109352
8.504331,0.0109579
8.545955,0.0109713
8.587989,0.0109862
8.630437,0.0109992
8.673307,0.0110097
8.716604,0.01102
8.760335,0.0110298
8.804507,0.0110399
8.849125,0.0110431
8.894198,0.0110445
8.939732,0.0110449
8.985733,0.0110589
9.03221,0.0110691
9.07917,0.0110673
9.12662,0.0110695
9.174568,0.0110589
9.223022,0.0110703
9.27199,0.0110754
9.32148,0.0110812
9.3715,0.0110904
9.42206,0.0111068
9.473167,0.0110984
9.524832,0.0110989
9.577062,0.0111028
9.629868,0.0111033
9.683259,0.011109
9.737244,0.0111123
9.791834,0.0111153
9.847039,0.0111194
9.902869,0.0111309
9.959336,0.0111411
10.0164,0.011144
10.0742,0.0111482
10.1327,0.0111483
10.1918,0.0111458
10.2516,0.0111436
10.3121,0.0111402
10.37336,0.0111353
10.4353,0.0111336
10.498,0.0111282
10.5615,0.0111232
10.6258,0.0111246
10.69079,0.0111152
10.7566,0.0111092
10.8233,0.011108
10.8907,0.0110945
10.9591,0.01108177
11.02824,0.0110762
11.0983,0.0110625
11.1693,0.0110465
11.2411,0.0110335
11.3139,0.0110208
11.3877,0.0110115
11.46238,0.0109881
11.5381,0.0109899
11.6148,0.010973
11.6925,0.0109586
11.77129,0.0109484
11.8511,0.010932
11.9321,0.0109016
12.0141,0.0109018
12.0973,0.0108737
12.1816,0.0108649
12.26716,0.0108451
12.3539,0.0108334
12.4419,0.0108213
12.5311,0.0108071
12.6216,0.0108113
12.7134,0.0108189
12.8066,0.0108228
12.9012,0.0108117
12.9971,0.0107868
13.09451,0.0107723
13.1934,0.010747
13.29374,0.0107257
13.3956,0.010707
13.4991,0.0106783
13.6042,0.0106154
13.7109,0.0106209
13.8194,0.0105952
13.9295,0.0105607
14.0414,0.0105137
14.1552,0.0104757
14.2707,0.0104149
14.3882,0.010352
14.5077,0.0102513
14.6291,0.0101447
14.7526,0.998529
14.8782,0.984594
15.00592,0.952734
15.1359,0.907618
15.2681,0.845449
15.4026,0.777637
15.5396,0.683968
15.679,0.550898
15.8209,0.45356
15.9654,0.378474