File: csv_library/FTIR_PYX_10.csv
Database of Origin,University of Winnipeg Spectrophotometer Facility
Sample Description,"HOSERLab master pyroxenes, FTIR data"
Date Added,2016-12-14 03:34:49.8014

Data ID,FTIR_PYX_10
Sample ID,PYX108
Mineral Name,Orthopyroxene
Grain Size,45-90 um
Viewing Geometry,"i=30, e=0"
Material Class,Inosilicate

Wavelength
2000.56,0.350123
2002.307,0.350735
2004.058,0.351477
2005.812,0.35209
2007.569,0.352704
2009.329,0.353891
2011.092,0.3543382
2012.858,0.35477
2014.627,0.356103
2016.399,0.356177
2018.174,0.356576
2019.952,0.356943
2021.733,0.357311
2023.518,0.357749
2025.305,0.35879
2027.096,0.35958
2028.89,0.359992
2030.686,0.360737
2032.486,0.361634
2034.289,0.362576
2036.096,0.363108
2037.905,0.363716
2039.718,0.36477
2041.533,0.365619
2043.352,0.366272
2045.174,0.367065
2047.0,0.367521
2048.828,0.36841
2050.66,0.368943
2052.495,0.369559
2054.333,0.37007
2056.175,0.371125
2058.019,0.372255
2059.867,0.3727684
2061.718,0.373292
2063.573,0.373723
2065.431,0.375167
2067.292,0.375826
2069.156,0.376402
2071.024,0.37717
2072.895,0.377779
2074.769,0.378402
2076.647,0.378526
2078.528,0.379516
2080.412,0.3805446
2082.3,0.381697
2084.191,0.382101
2086.085,0.3827118
2087.983,0.383482
2089.885,0.384476
2091.789,0.385023
2093.697,0.385768
2095.609,0.38661
2097.524,0.387302
2099.443,0.388524
2101.364,0.389233
2103.29,0.389401
2105.219,0.389888
2107.151,0.390175
2109.087,0.390916
2111.026,0.3907412
2112.969,0.3916948
2114.915,0.3924358
2116.865,0.392794
2118.819,0.393116
2120.776,0.394062
2122.736,0.394905
2124.7,0.395124
2126.668,0.395909
2128.64,0.396824
2130.614,0.397534
2132.593,0.398653
2134.575,0.399541
2136.561,0.399894
2138.55,0.400779
2140.544,0.401865
2142.54,0.402407
2144.541,0.403174
2146.545,0.403335
2148.553,0.4037
2150.564,0.4048506
2152.579,0.405108
2154.598,0.405908
2156.621,0.406263
2158.647,0.406693
2160.678,0.407855
2162.712,0.408903
2164.749,0.409043
2166.791,0.409434
2168.836,0.410478
2170.885,0.411409
2172.938,0.411784
2174.995,0.412262
2177.056,0.413341
2179.12,0.414032
2181.189,0.413825
2183.261,0.414712
2185.337,0.415565
2187.417,0.416203
2189.501,0.416467
2191.589,0.416531
2193.68,0.4170338
2195.776,0.417733
2197.876,0.418247
2199.979,0.419396
2202.087,0.419397
2204.199,0.419322
2206.314,0.419999
2208.434,0.420823
2210.557,0.421623
2212.685,0.421666
2214.817,0.421852
2216.952,0.421861
2219.092,0.422425
2221.236,0.422236
2223.384,0.4216197
2225.536,0.421784
2227.692,0.422307
2229.853,0.422557
2232.017,0.422462
2234.186,0.422178
2236.359,0.421998
2238.536,0.4224516
2240.717,0.422717
2242.902,0.422643
2245.092,0.422421
2247.285,0.4225525
2249.483,0.422885
2251.686,0.4231
2253.892,0.42307
2256.103,0.423281
2258.318,0.423161
2260.537,0.42282
2262.761,0.422473
2264.989,0.421783
2267.221,0.42053
2269.458,0.420166
2271.699,0.419683
2273.944,0.419498
2276.194,0.418236
2278.448,0.416987
2280.707,0.415485
2282.97,0.412947
2285.237,0.409384
2287.509,0.405695
2289.786,0.404851
2292.067,0.40647
2294.352,0.408503
2296.642,0.4075759
2298.936,0.405839
2301.235,0.405033
2303.539,0.402178
2305.847,0.398261
2308.159,0.394763
2310.476,0.391265
2312.798,0.391948
2315.124,0.397899
2317.455,0.403767
2319.791,0.406739
2322.131,0.409483
2324.476,0.413775
2326.826,0.4180007
2329.18,0.421
2331.54,0.422594
2333.903,0.424266
2336.272,0.425718
2338.645,0.426658
2341.023,0.4274096
2343.406,0.42832
2345.794,0.429038
2348.186,0.429106
2350.583,0.429783
2352.986,0.429265
2355.393,0.42989
2357.804,0.430141
2360.221,0.43038
2362.643,0.430579
2365.069,0.42979
2367.501,0.4289176
2369.937,0.427931
2372.379,0.426532
2374.825,0.4255469
2377.276,0.424542
2379.733,0.423218
2382.194,0.421725
2384.661,0.421842
2387.132,0.422636
2389.609,0.42308
2392.09,0.42495
2394.577,0.426703
2397.069,0.429265
2399.566,0.432011
2402.068,0.434357
2404.575,0.4357853
2407.088,0.436875
2409.606,0.437232
2412.128,0.437356
2414.657,0.437395
2417.19,0.437933
2419.729,0.438265
2422.272,0.4378442
2424.822,0.43791
2427.376,0.438441
2429.936,0.439311
2432.501,0.438798
2435.072,0.438508
2437.648,0.438968
2440.229,0.439295
2442.816,0.439857
2445.408,0.440169
2448.006,0.441008
2450.609,0.441416
2453.217,0.440955
2455.831,0.441316
2458.451,0.441289
2461.076,0.44074
2463.707,0.44127
2466.343,0.441932
2468.985,0.442876
2471.632,0.444024
2474.285,0.444898
2476.944,0.446007
2479.608,0.446646
2482.278,0.4474691
2484.954,0.448274
2487.636,0.448561
2490.323,0.449208
2493.016,0.44924
2495.715,0.449305
2498.419,0.449446
2501.129,0.450602
2503.845,0.451125
2506.567,0.45139
2509.295,0.452119
2512.029,0.452541
2514.769,0.452774
2517.514,0.453161
2520.266,0.453967
2523.023,0.45473
2525.787,0.455152
2528.556,0.456137
2531.331,0.456685
2534.113,0.457323
2536.9,0.457948
2539.694,0.458914
2542.494,0.4590079
2545.3,0.4595999
2548.112,0.459612
2550.93,0.460648
2553.754,0.460503
2556.585,0.460241
2559.421,0.461281
2562.264,0.462235
2565.113,0.461634
2567.969,0.46282
2570.831,0.462651
2573.699,0.463582
2576.573,0.463818
2579.454,0.464571
2582.342,0.46521
2585.235,0.465515
2588.135,0.466593
2591.042,0.468526
2593.955,0.473114
2596.874,0.4672472
2599.8,0.468555
2602.733,0.470312
2605.672,0.470831
2608.618,0.469667
2611.57,0.469703
2614.529,0.472029
2617.495,0.472676
2620.467,0.472034
2623.446,0.471741
2626.431,0.473275
2629.424,0.474258
2632.423,0.473349
2635.429,0.472728
2638.442,0.473317
2641.461,0.473149
2644.488,0.473572
2647.521,0.473408
2650.561,0.474383
2653.609,0.473796
2656.663,0.47352
2659.724,0.473316
2662.792,0.473789
2665.867,0.474736
2668.949,0.4731612
2672.038,0.466396
2675.135,0.461647
2678.238,0.450841
2681.349,0.436107
2684.467,0.423726
2687.591,0.409944
2690.724,0.397858
2693.863,0.387198
2697.01,0.364425
2700.164,0.3439434
2703.325,0.322837
2706.494,0.303106
2709.67,0.298465
2712.853,0.286798
2716.044,0.269081
2719.242,0.244397
2722.448,0.235396
2725.661,0.247272
2728.882,0.247316
2732.111,0.2443188
2735.347,0.251551
2738.59,0.257246
2741.841,0.2597
2745.1,0.256467
2748.367,0.255598
2751.641,0.255258
2754.923,0.255115
2758.213,0.251491
2761.51,0.250495
2764.816,0.249092
2768.129,0.248172
2771.45,0.246605
2774.779,0.2455082
2778.116,0.245339
2781.461,0.244293
2784.814,0.2436203
2788.175,0.241871
2791.544,0.2419991
2794.922,0.242014
2798.307,0.241181
2801.7,0.24043
2805.102,0.238232
2808.512,0.238878
2811.93,0.239132
2815.356,0.239598
2818.791,0.240432
2822.233,0.24123
2825.685,0.242619
2829.144,0.242808
2832.612,0.242151
2836.089,0.240356
2839.574,0.238206
2843.067,0.23715
2846.569,0.238062
2850.08,0.239721
2853.599,0.241133
2857.127,0.241625
2860.664,0.243136
2864.209,0.243502
2867.763,0.242354
2871.325,0.241244
2874.897,0.240333
2878.477,0.239996
2882.066,0.239399
2885.664,0.238613
2889.271,0.238319
2892.887,0.237413
2896.512,0.235629
2900.146,0.234459
2903.789,0.233388
2907.441,0.232883
2911.103,0.232557
2914.773,0.23251
2918.453,0.232588
2922.142,0.231222
2925.84,0.230565
2929.547,0.23008
2933.264,0.230148
2936.99,0.231396
2940.726,0.231521
2944.471,0.232639
2948.225,0.234926
2951.989,0.234662
2955.763,0.236209
2959.546,0.236108
2963.339,0.2365919
2967.141,0.237716
2970.953,0.238814
2974.775,0.241118
2978.607,0.241833
2982.448,0.241731
2986.3,0.242877
2990.161,0.244294
2994.032,0.245278
2997.913,0.245547
3001.804,0.247212
3005.705,0.247806
3009.616,0.24802
3013.538,0.249318
3017.469,0.250321
3021.411,0.250569
3025.363,0.251669
3029.325,0.253945
3033.298,0.256042
3037.281,0.254747
3041.274,0.255795
3045.278,0.2575682
3049.292,0.257314
3053.317,0.2575219
3057.352,0.257911
3061.398,0.2591023
3065.455,0.261054
3069.522,0.26055
3073.6,0.2610078
3077.689,0.262277
3081.788,0.263341
3085.899,0.264318
3090.02,0.2647751
3094.153,0.26524
3098.296,0.266429
3102.45,0.267911
3106.616,0.267567
3110.792,0.268133
3114.98,0.269511
3119.179,0.2706714
3123.389,0.271488
3127.611,0.272279
3131.844,0.27361
3136.088,0.274658
3140.344,0.275701
3144.611,0.276912
3148.89,0.278325
3153.18,0.279701
3157.482,0.28084
3161.796,0.282386
3166.121,0.284088
3170.458,0.28563
3174.807,0.287017
3179.168,0.2898452
3183.541,0.291522
3187.926,0.291621
3192.323,0.293817
3196.731,0.295659
3201.152,0.296233
3205.585,0.2978685
3210.031,0.299273
3214.488,0.303029
3218.958,0.3047829
3223.441,0.304371
3227.936,0.305981
3232.443,0.30654
3236.963,0.308461
3241.495,0.309627
3246.04,0.311829
3250.598,0.313922
3255.168,0.316608
3259.751,0.317663
3264.347,0.317298
3268.956,0.319143
3273.578,0.320335
3278.213,0.320772
3282.861,0.322179
3287.522,0.323982
3292.196,0.325381
3296.884,0.327114
3301.585,0.326674
3306.299,0.327208
3311.026,0.327457
3315.767,0.328882
3320.522,0.331039
3325.29,0.334324
3330.072,0.3372
3334.867,0.33689
3339.676,0.337604
3344.499,0.338856
3349.336,0.3396604
3354.187,0.33993
3359.052,0.339596
3363.931,0.34066
3368.824,0.340381
3373.731,0.339121
3378.652,0.338182
3383.588,0.33946
3388.538,0.341838
3393.502,0.344128
3398.481,0.34529
3403.475,0.345065
3408.483,0.344103
3413.506,0.342111
3418.543,0.342569
3423.596,0.346294
3428.663,0.3504117
3433.745,0.354706
3438.842,0.3596939
3443.954,0.363503
3449.082,0.364155
3454.224,0.3660275
3459.382,0.36822
3464.556,0.3700246
3469.744,0.370311
3474.948,0.370634
3480.168,0.3709452
3485.403,0.371366
3490.654,0.373479
3495.921,0.37315
3501.204,0.372673
3506.502,0.374996
3511.817,0.379304
3517.147,0.3840575
3522.494,0.387993
3527.857,0.390729
3533.236,0.394368
3538.631,0.396263
3544.043,0.397285
3549.471,0.3987234
3554.916,0.400272
3560.378,0.4018824
3565.856,0.403096
3571.351,0.404933
3576.863,0.405655
3582.392,0.406882
3587.938,0.408416
3593.501,0.409427
3599.082,0.4107766
3604.679,0.411039
3610.294,0.4124481
3615.926,0.414219
3621.576,0.41467
3627.244,0.415332
3632.929,0.416279
3638.632,0.417384
3644.353,0.418389
3650.091,0.419804
3655.848,0.420397
3661.623,0.420909
3667.416,0.42211
3673.227,0.422817
3679.057,0.424411
3684.905,0.42579
3690.771,0.425427
3696.656,0.42647
3702.56,0.427765
3708.483,0.428637
3714.425,0.42932
3720.385,0.42997
3726.365,0.431014
3732.364,0.43241
3738.382,0.433653
3744.419,0.435007
3750.476,0.436104
3756.553,0.436315
3762.649,0.437196
3768.764,0.4382255
3774.9,0.438809
3781.056,0.439202
3787.231,0.439954
3793.427,0.440584
3799.643,0.441246
3805.879,0.441811
3812.135,0.442217
3818.412,0.443412
3824.71,0.444813
3831.029,0.445248
3837.368,0.446319
3843.728,0.447631
3850.109,0.4485665
3856.512,0.449118
3862.935,0.450021
3869.38,0.450533
3875.846,0.4512716
3882.334,0.452164
3888.844,0.453165
3895.375,0.4541554
3901.929,0.454559
3908.504,0.455041
3915.101,0.455804
3921.721,0.456545
3928.363,0.457033
3935.027,0.457405
3941.714,0.458061
3948.423,0.458933
3955.156,0.4598754
3961.911,0.461127
3968.689,0.462581
3975.491,0.464144
3982.315,0.465605
3989.163,0.466449
3996.035,0.467191
4002.93,0.467973
4009.849,0.46876
4016.791,0.469253
4023.758,0.470186
4030.749,0.4708786
4037.764,0.471407
4044.804,0.472043
4051.867,0.473352
4058.956,0.474288
4066.069,0.47528
4073.207,0.476732
4080.371,0.4779626
4087.559,0.479055
4094.773,0.480291
4102.012,0.48164
4109.276,0.482795
4116.566,0.484122
4123.882,0.485725
4131.224,0.487201
4138.592,0.488744
4145.987,0.490433
4153.407,0.492051
4160.854,0.4936067
4168.328,0.494999
4175.829,0.496454
4183.356,0.498366
4190.911,0.500951
4198.493,0.505961
4206.102,0.516675
4213.739,0.531712
4221.404,0.546148
4229.096,0.557616
4236.816,0.564763
4244.565,0.564264
4252.341,0.551103
4260.146,0.545916
4267.98,0.561272
4275.843,0.565359
4283.734,0.566314
4291.655,0.56851
4299.604,0.567672
4307.583,0.567634
4315.592,0.5646415
4323.631,0.562107
4331.699,0.560531
4339.797,0.558558
4347.926,0.55877
4356.085,0.560099
4364.275,0.561644
4372.495,0.56423
4380.746,0.566864
4389.029,0.570571
4397.342,0.574605
4405.687,0.578141
4414.064,0.581661
4422.472,0.585194
4430.913,0.588327
4439.386,0.591425
4447.891,0.593796
4456.428,0.595878
4464.998,0.598819
4473.602,0.601481
4482.238,0.60348
4490.908,0.605124
4499.611,0.606712
4508.347,0.608058
4517.118,0.608924
4525.923,0.609459
4534.762,0.610034
4543.635,0.610055
4552.543,0.610224
4561.487,0.6107452
4570.465,0.610439
4579.478,0.610361
4588.527,0.610823
4597.612,0.610225
4606.732,0.610825
4615.889,0.6097747
4625.082,0.609801
4634.312,0.609596
4643.578,0.610504
4652.882,0.611521
4662.223,0.613334
4671.601,0.616763
4681.017,0.620487
4690.471,0.621157
4699.962,0.624405
4709.493,0.628043
4719.062,0.629712
4728.669,0.631948
4738.316,0.633849
4748.002,0.6351659
4757.728,0.637609
4767.494,0.639292
4777.299,0.641346
4787.145,0.643641
4797.032,0.644958
4806.959,0.646833
4816.927,0.650311
4826.937,0.651913
4836.988,0.653711
4847.081,0.657023
4857.216,0.661157
4867.393,0.6638182
4877.613,0.66629
4887.876,0.669028
4898.182,0.673364
4908.532,0.6764588
4918.925,0.678136
4929.362,0.6815389
4939.844,0.684756
4950.37,0.688176
4960.941,0.690862
4971.556,0.692109
4982.218,0.694384
4992.925,0.695748
5003.678,0.697963
5014.477,0.701412
5025.323,0.703367
5036.216,0.70281
5047.156,0.704144
5058.143,0.705249
5069.179,0.706432
5080.262,0.710059
5091.394,0.710923
5102.574,0.711578
5113.804,0.713477
5125.083,0.714858
5136.412,0.719021
5147.791,0.725226
5159.22,0.724976
5170.7,0.728451
5182.231,0.732567
5193.814,0.739218
5205.448,0.7465529
5217.134,0.74935
5228.873,0.7494803
5240.665,0.754111
5252.51,0.755528
5264.408,0.758898
5276.36,0.763969
5288.367,0.76929
5300.428,0.770168
5312.544,0.7709136
5324.715,0.773738
5336.942,0.778207
5349.226,0.789041
5361.566,0.784534
5373.962,0.783815
5386.417,0.785351
5398.928,0.7872722
5411.498,0.795237
5424.127,0.802314
5436.814,0.795591
5449.561,0.799411
5462.368,0.81219
5475.234,0.818622
5488.162,0.820476
5501.15,0.822643
5514.2,0.843857
5527.312,0.870391
5540.486,0.895398
5553.723,0.8276461
5567.023,0.67097
5580.387,0.650725
5593.815,0.713298
5607.307,0.73654
5620.865,0.755296
5634.489,0.767353
5648.178,0.770731
5661.934,0.772559
5675.757,0.782123
5689.647,0.786007
5703.606,0.790527
5717.633,0.7982855
5731.729,0.801092
5745.894,0.8072176
5760.13,0.816745
5774.436,0.818113
5788.813,0.811892
5803.262,0.818475
5817.782,0.835512
5832.376,0.832581
5847.043,0.829079
5861.783,0.839786
5876.598,0.852203
5891.488,0.852517
5906.454,0.841747
5921.495,0.847464
5936.613,0.858751
5951.809,0.8517645
5967.082,0.855217
5982.433,0.855234
5997.864,0.852817
6013.374,0.855048
6028.964,0.856184
6044.636,0.869973
6060.389,0.8664696
6076.224,0.865513
6092.141,0.8625155
6108.143,0.874089
6124.228,0.867219
6140.398,0.869706
6156.654,0.8738582
6172.996,0.876702
6189.424,0.878068
6205.94,0.877383
6222.544,0.879416
6239.237,0.881468
6256.02,0.882989
6272.893,0.886343
6289.858,0.886823
6306.914,0.888606
6324.062,0.893114
6341.304,0.898756
6358.64,0.900792
6376.071,0.902121
6393.598,0.903546
6411.221,0.915167
6428.941,0.908511
6446.759,0.9076343
6464.676,0.911528
6482.693,0.920008
6500.81,0.915696
6519.029,0.916957
6537.35,0.917364
6555.774,0.921352
6574.302,0.924604
6592.934,0.924055
6611.673,0.9268459
6630.518,0.932753
6649.47,0.924943
6668.532,0.928556
6687.702,0.92874
6706.983,0.933382
6726.375,0.93058
6745.879,0.9305378
6765.497,0.93525
6785.229,0.937148
6805.076,0.934741
6825.039,0.93699
6845.12,0.940492
6865.319,0.9409
6885.637,0.93877
6906.076,0.939877
6926.636,0.939515
6947.319,0.942946
6968.125,0.9432216
6989.057,0.944865
7010.114,0.945853
7031.298,0.949092
7052.611,0.9496596
7074.052,0.949051
7095.625,0.950444
7117.329,0.952431
7139.166,0.954468
7161.137,0.955169
7183.244,0.955423
7205.487,0.957281
7227.869,0.957567
7250.39,0.959216
7273.051,0.96068
7295.854,0.96137
7318.8,0.963064
7341.891,0.963795
7365.128,0.964249
7388.512,0.966237
7412.045,0.96785
7435.728,0.968738
7459.562,0.970364
7483.55,0.970831
7507.692,0.971401
7531.99,0.972213
7556.446,0.9732302
7581.061,0.974084
7605.837,0.974353
7630.774,0.974572
7655.876,0.974923
7681.143,0.976041
7706.577,0.976693
7732.18,0.977088
7757.953,0.978182
7783.899,0.979146
7810.018,0.980337
7836.313,0.981595
7862.786,0.982819
7889.437,0.984273
7916.27,0.985356
7943.285,0.986327
7970.485,0.987615
7997.872,0.988749
8025.448,0.9896439
8053.214,0.990727
8081.173,0.9915609
8109.326,0.992094
8137.676,0.993073
8166.224,0.993991
8194.973,0.995196
8223.925,0.996032
8253.082,0.996598
8282.446,0.99776
8312.02,0.99872
8341.805,0.999948
8371.804,0.01000754
8402.02,0.0100171
8432.454,0.0100238
8463.109,0.0100304
8493.988,0.0100369
8525.092,0.0100424
8556.425,0.0100482
8587.989,0.0100534
8619.786,0.0100582
8651.819,0.010062
8684.091,0.0100688
8716.604,0.0100784
8749.361,0.0100851
8782.365,0.0100913
8815.619,0.0101037
8849.125,0.0101161
8882.887,0.0101242
8916.907,0.0101337
8951.188,0.0101419
8985.733,0.0101466
9020.546,0.010146
9055.629,0.0101414
9090.986,0.0101396
9126.62,0.0101371
9162.534,0.0101256
9198.731,0.0101192
9235.215,0.0101144
9271.99,0.0101099
9309.058,0.010108
9346.423,0.0101082
9384.089,0.0101094
9422.06,0.0101159
9460.339,0.0101199
9498.929,0.0101256
9537.836,0.01013
9577.062,0.0101347
9616.612,0.0101396
9656.49,0.010144
9696.699,0.0101487
9737.244,0.0101485
9778.129,0.0101452
9819.359,0.0101428
9860.938,0.0101428
9902.869,0.0101444
9945.159,0.0101469
9987.811,0.0101475
10030.83,0.0101513
10074.221,0.0101522
10117.988,0.0101569
10162.137,0.0101631
10206.672,0.0101708
10251.6,0.0101802
10296.924,0.0101848
10342.65,0.0101883
10388.784,0.0101934
10435.331,0.0101982
10482.296,0.0101968
10529.686,0.0101959
10577.505,0.01019956
10625.761,0.0102036
10674.458,0.0102021
10723.604,0.0102001
10773.203,0.0102021
10823.264,0.0102026
10873.791,0.0102044
10924.791,0.0102067
10976.272,0.010211
11028.24,0.0102151
11080.702,0.0102175
11133.665,0.010217
11187.137,0.0102154
11241.124,0.0102113
11295.634,0.0102064
11350.675,0.0102
11406.254,0.0101939
11462.38,0.010189
11519.06,0.0101832
11576.304,0.0101789
11634.118,0.0101762
11692.513,0.0101759
11751.496,0.0101743
11811.077,0.0101752
11871.265,0.0101801
11932.068,0.0101841
11993.497,0.0101842
12055.562,0.0101908
12118.271,0.0101913
12181.636,0.0101884
12245.667,0.0101893
12310.373,0.0101867
12375.767,0.0101832
12441.859,0.0101778
12508.659,0.010179
12576.18,0.0101769
12644.434,0.0101678
12713.432,0.0101692
12783.187,0.0101736
12853.71,0.0101751
12925.016,0.0101788
12997.116,0.0101832
13070.025,0.0101921
13143.756,0.0101961
13218.322,0.0102025
13293.74,0.0102056
13370.021,0.0102074
13447.183,0.0102079
13525.24,0.0102087
13604.208,0.0102
13684.103,0.0101936
13764.941,0.010181
13846.739,0.0101742
13929.515,0.0101763
14013.285,0.0101735
14098.068,0.0101685
14183.883,0.0101587
14270.749,0.0101479
14358.684,0.0101523
14447.709,0.0101448
14537.844,0.0101294
14629.109,0.0101236
14721.528,0.0101181
14815.121,0.0101132
14909.91,0.0100411
15005.92,0.0100331
15103.173,0.0100556
15201.695,0.0100227
15301.509,0.992661
15402.642,0.981177
15505.12,0.964062
15608.97,0.945954
15714.22,0.902013
15820.897,0.85344
15929.033,0.821309
15965.407,0.804684