File: csv_library/FTIR_PYX_15.csv
Database of Origin,University of Winnipeg Spectrophotometer Facility
Sample Description,"HOSERLab master pyroxenes, FTIR data"
Date Added,2016-12-14 03:34:49.9683

Data ID,FTIR_PYX_15
Sample ID,PYX117
Mineral Name,Orthopyroxene
Grain Size,<45 um
Viewing Geometry,"i=30, e=0"
Material Class,Inosilicate

Wavelength
2000.56,0.368194
2002.307,0.368757
2004.058,0.370336
2005.812,0.371413
2007.569,0.37233
2009.329,0.373209
2011.092,0.374167
2012.858,0.37536
2014.627,0.376395
2016.399,0.377099
2018.174,0.378382
2019.952,0.37956
2021.733,0.379923
2023.518,0.380889
2025.305,0.381556
2027.096,0.383519
2028.89,0.38464
2030.686,0.38609
2032.486,0.386819
2034.289,0.387554
2036.096,0.389248
2037.905,0.390589
2039.718,0.3923089
2041.533,0.393361
2043.352,0.3947652
2045.174,0.396115
2047.0,0.397165
2048.828,0.398363
2050.66,0.399671
2052.495,0.401113
2054.333,0.402372
2056.175,0.403916
2058.019,0.405485
2059.867,0.406952
2061.718,0.408038
2063.573,0.409315
2065.431,0.411242
2067.292,0.412923
2069.156,0.414511
2071.024,0.415678
2072.895,0.417645
2074.769,0.419298
2076.647,0.420184
2078.528,0.421617
2080.412,0.423674
2082.3,0.42574
2084.191,0.426844
2086.085,0.42846
2087.983,0.430542
2089.885,0.432519
2091.789,0.433844
2093.697,0.435461
2095.609,0.4374478
2097.524,0.439438
2099.443,0.441405
2101.364,0.443376
2103.29,0.445309
2105.219,0.446802
2107.151,0.447961
2109.087,0.44911
2111.026,0.450985
2112.969,0.453075
2114.915,0.454704
2116.865,0.456308
2118.819,0.4583009
2120.776,0.4605643
2122.736,0.4628745
2124.7,0.464722
2126.668,0.465933
2128.64,0.467952
2130.614,0.470365
2132.593,0.472972
2134.575,0.474726
2136.561,0.476401
2138.55,0.478653
2140.544,0.48082
2142.54,0.483043
2144.541,0.485024
2146.545,0.486918
2148.553,0.489081
2150.564,0.491422
2152.579,0.492597
2154.598,0.494648
2156.621,0.49636
2158.647,0.498291
2160.678,0.501
2162.712,0.5034622
2164.749,0.505564
2166.791,0.507095
2168.836,0.509045
2170.885,0.511365
2172.938,0.5130502
2174.995,0.515573
2177.056,0.518209
2179.12,0.520495
2181.189,0.522081
2183.261,0.524165
2185.337,0.526663
2187.417,0.528786
2189.501,0.531529
2191.589,0.5336397
2193.68,0.535849
2195.776,0.538217
2197.876,0.540893
2199.979,0.54339
2202.087,0.545219
2204.199,0.547384
2206.314,0.5498239
2208.434,0.551972
2210.557,0.554037
2212.685,0.556637
2214.817,0.558942
2216.952,0.560912
2219.092,0.562965
2221.236,0.5645281
2223.384,0.565712
2225.536,0.567995
2227.692,0.570456
2229.853,0.572687
2232.017,0.573749
2234.186,0.575523
2236.359,0.5779502
2238.536,0.580139
2240.717,0.581935
2242.902,0.583246
2245.092,0.585043
2247.285,0.587191
2249.483,0.589242
2251.686,0.590862
2253.892,0.59277
2256.103,0.59462
2258.318,0.596347
2260.537,0.598945
2262.761,0.60143
2264.989,0.603435
2267.221,0.604962
2269.458,0.606242
2271.699,0.6085176
2273.944,0.6110185
2276.194,0.6128714
2278.448,0.614906
2280.707,0.616908
2282.97,0.618833
2285.237,0.620127
2287.509,0.622017
2289.786,0.624044
2292.067,0.625183
2294.352,0.627368
2296.642,0.628765
2298.936,0.630349
2301.235,0.632561
2303.539,0.634305
2305.847,0.636212
2308.159,0.638535
2310.476,0.640281
2312.798,0.641619
2315.124,0.643456
2317.455,0.645212
2319.791,0.646681
2322.131,0.648183
2324.476,0.650444
2326.826,0.6519827
2329.18,0.653586
2331.54,0.654886
2333.903,0.65661
2336.272,0.6585957
2338.645,0.660032
2341.023,0.662024
2343.406,0.663044
2345.794,0.664895
2348.186,0.666836
2350.583,0.668853
2352.986,0.6699237
2355.393,0.67136
2357.804,0.672775
2360.221,0.674063
2362.643,0.6754825
2365.069,0.676787
2367.501,0.677901
2369.937,0.678814
2372.379,0.679961
2374.825,0.681306
2377.276,0.682776
2379.733,0.684145
2382.194,0.684938
2384.661,0.686769
2387.132,0.688065
2389.609,0.6889189
2392.09,0.690256
2394.577,0.6915896
2397.069,0.692753
2399.566,0.693119
2402.068,0.694313
2404.575,0.6954133
2407.088,0.696474
2409.606,0.69716
2412.128,0.698111
2414.657,0.699274
2417.19,0.700235
2419.729,0.701313
2422.272,0.702119
2424.822,0.7032081
2427.376,0.704105
2429.936,0.704746
2432.501,0.705168
2435.072,0.706167
2437.648,0.7067635
2440.229,0.707143
2442.816,0.70833
2445.408,0.709536
2448.006,0.710292
2450.609,0.710618
2453.217,0.710563
2455.831,0.711589
2458.451,0.712518
2461.076,0.712587
2463.707,0.71368
2466.343,0.714616
2468.985,0.714475
2471.632,0.715206
2474.285,0.715977
2476.944,0.716335
2479.608,0.7164739
2482.278,0.717191
2484.954,0.717751
2487.636,0.718254
2490.323,0.719245
2493.016,0.719217
2495.715,0.719514
2498.419,0.720373
2501.129,0.721088
2503.845,0.720993
2506.567,0.721102
2509.295,0.721355
2512.029,0.722193
2514.769,0.7225737
2517.514,0.722155
2520.266,0.722806
2523.023,0.723363
2525.787,0.722849
2528.556,0.723247
2531.331,0.722457
2534.113,0.722642
2536.9,0.723067
2539.694,0.7242824
2542.494,0.722324
2545.3,0.723031
2548.112,0.722828
2550.93,0.723304
2553.754,0.723652
2556.585,0.7248094
2559.421,0.722025
2562.264,0.717786
2565.113,0.720859
2567.969,0.723569
2570.831,0.721917
2573.699,0.721453
2576.573,0.722062
2579.454,0.723705
2582.342,0.719986
2585.235,0.718479
2588.135,0.7199665
2591.042,0.723938
2593.955,0.721542
2596.874,0.717386
2599.8,0.723322
2602.733,0.721568
2605.672,0.719364
2608.618,0.720492
2611.57,0.722078
2614.529,0.721862
2617.495,0.718264
2620.467,0.719595
2623.446,0.722997
2626.431,0.721901
2629.424,0.719995
2632.423,0.719638
2635.429,0.722346
2638.442,0.724386
2641.461,0.723165
2644.488,0.722529
2647.521,0.722625
2650.561,0.724046
2653.609,0.720683
2656.663,0.721316
2659.724,0.71944
2662.792,0.719365
2665.867,0.71512
2668.949,0.714681
2672.038,0.7134479
2675.135,0.715784
2678.238,0.711899
2681.349,0.716429
2684.467,0.715968
2687.591,0.715744
2690.724,0.717871
2693.863,0.715195
2697.01,0.715142
2700.164,0.716536
2703.325,0.7135236
2706.494,0.712003
2709.67,0.708301
2712.853,0.701826
2716.044,0.701119
2719.242,0.695791
2722.448,0.687707
2725.661,0.683701
2728.882,0.680105
2732.111,0.676285
2735.347,0.670359
2738.59,0.663998
2741.841,0.652611
2745.1,0.650473
2748.367,0.6452223
2751.641,0.640268
2754.923,0.633397
2758.213,0.62403
2761.51,0.6198332
2764.816,0.610124
2768.129,0.60577
2771.45,0.60013
2774.779,0.593744
2778.116,0.5876337
2781.461,0.581011
2784.814,0.575292
2788.175,0.5668113
2791.544,0.562464
2794.922,0.556302
2798.307,0.549421
2801.7,0.536367
2805.102,0.518528
2808.512,0.5110813
2811.93,0.506913
2815.356,0.507393
2818.791,0.511241
2822.233,0.514344
2825.685,0.518176
2829.144,0.515887
2832.612,0.5080913
2836.089,0.492539
2839.574,0.476684
2843.067,0.466278
2846.569,0.460145
2850.08,0.457477
2853.599,0.460794
2857.127,0.470921
2860.664,0.485836
2864.209,0.4984254
2867.763,0.505597
2871.325,0.510226
2874.897,0.512628
2878.477,0.51438
2882.066,0.515545
2885.664,0.515537
2889.271,0.514909
2892.887,0.51374
2896.512,0.511776
2900.146,0.508836
2903.789,0.505327
2907.441,0.501727
2911.103,0.497505
2914.773,0.492621
2918.453,0.488217
2922.142,0.482996
2925.84,0.479377
2929.547,0.477467
2933.264,0.477453
2936.99,0.478905
2940.726,0.480222
2944.471,0.482851
2948.225,0.486587
2951.989,0.488397
2955.763,0.489934
2959.546,0.490744
2963.339,0.4923746
2967.141,0.493483
2970.953,0.4936078
2974.775,0.494419
2978.607,0.494257
2982.448,0.493591
2986.3,0.493426
2990.161,0.493166
2994.032,0.492402
2997.913,0.491808
3001.804,0.49224
3005.705,0.491862
3009.616,0.491061
3013.538,0.491468
3017.469,0.491296
3021.411,0.490681
3025.363,0.49077
3029.325,0.492292
3033.298,0.492867
3037.281,0.491409
3041.274,0.491306
3045.278,0.49141
3049.292,0.490507
3053.317,0.489968
3057.352,0.489416
3061.398,0.489468
3065.455,0.489854
3069.522,0.488524
3073.6,0.487685
3077.689,0.487848
3081.788,0.487526
3085.899,0.48741
3090.02,0.487122
3094.153,0.486117
3098.296,0.485854
3102.45,0.485873
3106.616,0.484862
3110.792,0.484759
3114.98,0.485297
3119.179,0.485918
3123.389,0.486458
3127.611,0.486966
3131.844,0.487922
3136.088,0.489075
3140.344,0.489752
3144.611,0.490643
3148.89,0.491797
3153.18,0.492759
3157.482,0.493596
3161.796,0.4941895
3166.121,0.494699
3170.458,0.495614
3174.807,0.495836
3179.168,0.497365
3183.541,0.49762
3187.926,0.497002
3192.323,0.4979493
3196.731,0.498209
3201.152,0.4975668
3205.585,0.497972
3210.031,0.497985
3214.488,0.499365
3218.958,0.499359
3223.441,0.498046
3227.936,0.498165
3232.443,0.497632
3236.963,0.497909
3241.495,0.497697
3246.04,0.49829
3250.598,0.498664
3255.168,0.49943
3259.751,0.499402
3264.347,0.498513
3268.956,0.499195
3273.578,0.499395
3278.213,0.499385
3282.861,0.50031
3287.522,0.50162
3292.196,0.50258
3296.884,0.503691
3301.585,0.5034391
3306.299,0.504313
3311.026,0.504827
3315.767,0.505725
3320.522,0.506318
3325.29,0.507972
3330.072,0.509611
3334.867,0.508823
3339.676,0.508812
3344.499,0.5096599
3349.336,0.510055
3354.187,0.509542
3359.052,0.5082
3363.931,0.507058
3368.824,0.504058
3373.731,0.500515
3378.652,0.498611
3383.588,0.499266
3388.538,0.501004
3393.502,0.500816
3398.481,0.498726
3403.475,0.494889
3408.483,0.489473
3413.506,0.483173
3418.543,0.480709
3423.596,0.484357
3428.663,0.490804
3433.745,0.496524
3438.842,0.501616
3443.954,0.505186
3449.082,0.505804
3454.224,0.507578
3459.382,0.509281
3464.556,0.510565
3469.744,0.5103796
3474.948,0.509789
3480.168,0.509264
3485.403,0.508485
3490.654,0.508476
3495.921,0.504901
3501.204,0.500994
3506.502,0.501732
3511.817,0.507173
3517.147,0.512528
3522.494,0.516112
3527.857,0.517967
3533.236,0.520218
3538.631,0.520886
3544.043,0.5203293
3549.471,0.520609
3554.916,0.520942
3560.378,0.520841
3565.856,0.5210543
3571.351,0.52143
3576.863,0.520855
3582.392,0.521185
3587.938,0.521428
3593.501,0.521444
3599.082,0.521526
3604.679,0.520382
3610.294,0.520283
3615.926,0.521124
3621.576,0.520894
3627.244,0.520522
3632.929,0.5206
3638.632,0.520081
3644.353,0.519879
3650.091,0.520418
3655.848,0.520207
3661.623,0.519582
3667.416,0.519139
3673.227,0.518908
3679.057,0.51924
3684.905,0.519204
3690.771,0.518627
3696.656,0.518542
3702.56,0.51879
3708.483,0.5184599
3714.425,0.517747
3720.385,0.517775
3726.365,0.517812
3732.364,0.517932
3738.382,0.517856
3744.419,0.518439
3750.476,0.518522
3756.553,0.518238
3762.649,0.5185314
3768.764,0.518622
3774.9,0.518185
3781.056,0.517691
3787.231,0.517755
3793.427,0.517736
3799.643,0.517636
3805.879,0.517368
3812.135,0.5171358
3818.412,0.517103
3824.71,0.516877
3831.029,0.516639
3837.368,0.5164839
3843.728,0.51648
3850.109,0.51683
3856.512,0.516966
3862.935,0.517188
3869.38,0.517126
3875.846,0.517455
3882.334,0.517666
3888.844,0.517845
3895.375,0.518321
3901.929,0.518571
3908.504,0.5186206
3915.101,0.519033
3921.721,0.519032
3928.363,0.51939
3935.027,0.519464
3941.714,0.51949
3948.423,0.519974
3955.156,0.520498
3961.911,0.52093
3968.689,0.521817
3975.491,0.522188
3982.315,0.523082
3989.163,0.523538
3996.035,0.523499
4002.93,0.523627
4009.849,0.5244319
4016.791,0.524732
4023.758,0.524768
4030.749,0.5248
4037.764,0.525295
4044.804,0.526371
4051.867,0.527234
4058.956,0.527908
4066.069,0.528698
4073.207,0.529468
4080.371,0.530396
4087.559,0.531428
4094.773,0.532156
4102.012,0.533148
4109.276,0.534
4116.566,0.535074
4123.882,0.5361913
4131.224,0.537191
4138.592,0.538235
4145.987,0.539563
4153.407,0.541364
4160.854,0.542671
4168.328,0.543801
4175.829,0.545049
4183.356,0.546404
4190.911,0.548682
4198.493,0.552992
4206.102,0.56254
4213.739,0.577089
4221.404,0.591401
4229.096,0.6030066
4236.816,0.610529
4244.565,0.609524
4252.341,0.594236
4260.146,0.589124
4267.98,0.605588
4275.843,0.610136
4283.734,0.610999
4291.655,0.612827
4299.604,0.6108522
4307.583,0.609849
4315.592,0.606311
4323.631,0.603869
4331.699,0.602084
4339.797,0.599485
4347.926,0.599565
4356.085,0.6009022
4364.275,0.602217
4372.495,0.604643
4380.746,0.606677
4389.029,0.610022
4397.342,0.61367
4405.687,0.616757
4414.064,0.620294
4422.472,0.623622
4430.913,0.6265288
4439.386,0.629509
4447.891,0.631297
4456.428,0.633677
4464.998,0.636386
4473.602,0.638961
4482.238,0.641022
4490.908,0.6427158
4499.611,0.64469
4508.347,0.646908
4517.118,0.648425
4525.923,0.650107
4534.762,0.651898
4543.635,0.653351
4552.543,0.6551449
4561.487,0.657466
4570.465,0.658761
4579.478,0.6601878
4588.527,0.662069
4597.612,0.663091
4606.732,0.665278
4615.889,0.665453
4625.082,0.666008
4634.312,0.66641
4643.578,0.667477
4652.882,0.667909
4662.223,0.668643
4671.601,0.670884
4681.017,0.673106
4690.471,0.67246
4699.962,0.674758
4709.493,0.677406
4719.062,0.678861
4728.669,0.681157
4738.316,0.683708
4748.002,0.685501
4757.728,0.688096
4767.494,0.6899588
4777.299,0.692307
4787.145,0.694087
4797.032,0.6949779
4806.959,0.69621
4816.927,0.6982
4826.937,0.698922
4836.988,0.69903
4847.081,0.700897
4857.216,0.703596
4867.393,0.7053495
4877.613,0.706087
4887.876,0.70835
4898.182,0.711906
4908.532,0.714218
4918.925,0.71512
4929.362,0.717987
4939.844,0.720387
4950.37,0.72278
4960.941,0.7246422
4971.556,0.725481
4982.218,0.727566
4992.925,0.729074
5003.678,0.73136
5014.477,0.734696
5025.323,0.736725
5036.216,0.736626
5047.156,0.737769
5058.143,0.73858
5069.179,0.739379
5080.262,0.742062
5091.394,0.742371
5102.574,0.742761
5113.804,0.744154
5125.083,0.745267
5136.412,0.747954
5147.791,0.752281
5159.22,0.750975
5170.7,0.753075
5182.231,0.756231
5193.814,0.761829
5205.448,0.768482
5217.134,0.771178
5228.873,0.771799
5240.665,0.776801
5252.51,0.7789356
5264.408,0.782734
5276.36,0.787896
5288.367,0.793421
5300.428,0.795105
5312.544,0.7968059
5324.715,0.800087
5336.942,0.8045998
5349.226,0.8138627
5361.566,0.809938
5373.962,0.809428
5386.417,0.810541
5398.928,0.812089
5411.498,0.819089
5424.127,0.825218
5436.814,0.8192788
5449.561,0.822592
5462.368,0.834382
5475.234,0.838842
5488.162,0.838729
5501.15,0.838868
5514.2,0.856743
5527.312,0.873407
5540.486,0.880774
5553.723,0.809399
5567.023,0.675551
5580.387,0.679971
5593.815,0.753331
5607.307,0.773961
5620.865,0.79231
5634.489,0.801743
5648.178,0.803764
5661.934,0.8039
5675.757,0.811594
5689.647,0.8147027
5703.606,0.818864
5717.633,0.825703
5731.729,0.828731
5745.894,0.833437
5760.13,0.841094
5774.436,0.842043
5788.813,0.837751
5803.262,0.843273
5817.782,0.858381
5832.376,0.856237
5847.043,0.853873
5861.783,0.864139
5876.598,0.873802
5891.488,0.87276
5906.454,0.863631
5921.495,0.868621
5936.613,0.877938
5951.809,0.871063
5967.082,0.873927
5982.433,0.874207
5997.864,0.871796
6013.374,0.872455
6028.964,0.874978
6044.636,0.8884588
6060.389,0.885163
6076.224,0.8843837
6092.141,0.881502
6108.143,0.891172
6124.228,0.88556
6140.398,0.8877436
6156.654,0.890688
6172.996,0.8923271
6189.424,0.892841
6205.94,0.890819
6222.544,0.891669
6239.237,0.893187
6256.02,0.893932
6272.893,0.896205
6289.858,0.895973
6306.914,0.898276
6324.062,0.902342
6341.304,0.906555
6358.64,0.908729
6376.071,0.909664
6393.598,0.911336
6411.221,0.921573
6428.941,0.915575
6446.759,0.915237
6464.676,0.9182073
6482.693,0.924989
6500.81,0.922094
6519.029,0.924058
6537.35,0.923615
6555.774,0.9268532
6574.302,0.929357
6592.934,0.9292172
6611.673,0.931924
6630.518,0.936471
6649.47,0.930275
6668.532,0.933669
6687.702,0.93346
6706.983,0.937557
6726.375,0.934925
6745.879,0.934768
6765.497,0.939013
6785.229,0.940523
6805.076,0.9384551
6825.039,0.940483
6845.12,0.94339
6865.319,0.943329
6885.637,0.941731
6906.076,0.942742
6926.636,0.942236
6947.319,0.944877
6968.125,0.945187
6989.057,0.946763
7010.114,0.947345
7031.298,0.950097
7052.611,0.950488
7074.052,0.950258
7095.625,0.951221
7117.329,0.953037
7139.166,0.955086
7161.137,0.955678
7183.244,0.9555067
7205.487,0.956487
7227.869,0.956495
7250.39,0.958009
7273.051,0.959165
7295.854,0.9594066
7318.8,0.9607852
7341.891,0.961424
7365.128,0.961402
7388.512,0.962979
7412.045,0.964179
7435.728,0.965028
7459.562,0.966485
7483.55,0.96648
7507.692,0.966982
7531.99,0.967579
7556.446,0.968238
7581.061,0.968648
7605.837,0.968602
7630.774,0.968636
7655.876,0.968831
7681.143,0.9696146
7706.577,0.970077
7732.18,0.97015
7757.953,0.970914
7783.899,0.971521
7810.018,0.972254
7836.313,0.973427
7862.786,0.974394
7889.437,0.975614
7916.27,0.976562
7943.285,0.976979
7970.485,0.977898
7997.872,0.978662
8025.448,0.979255
8053.214,0.9799433
8081.173,0.980198
8109.326,0.980564
8137.676,0.9812641
8166.224,0.981574
8194.973,0.982504
8223.925,0.982952
8253.082,0.983385
8282.446,0.984289
8312.02,0.985041
8341.805,0.985876
8371.804,0.986647
8402.02,0.987299
8432.454,0.987828
8463.109,0.988432
8493.988,0.989007
8525.092,0.989486
8556.425,0.990127
8587.989,0.990962
8619.786,0.991699
8651.819,0.9926712
8684.091,0.9939895
8716.604,0.995313
8749.361,0.996929
8782.365,0.998302
8815.619,0.9997518
8849.125,0.0100145
8882.887,0.0100279
8916.907,0.010042
8951.188,0.010053
8985.733,0.0100579
9020.546,0.0100583
9055.629,0.0100548
9090.986,0.0100536
9126.62,0.0100503
9162.534,0.0100409
9198.731,0.0100341
9235.215,0.0100301
9271.99,0.0100287
9309.058,0.0100271
9346.423,0.010027
9384.089,0.0100308
9422.06,0.0100387
9460.339,0.0100439
9498.929,0.0100508
9537.836,0.0100534
9577.062,0.0100565
9616.612,0.0100579
9656.49,0.0100593
9696.699,0.0100653
9737.244,0.0100658
9778.129,0.0100638
9819.359,0.0100618
9860.938,0.0100619
9902.869,0.010061
9945.159,0.0100592
9987.811,0.0100589
10030.83,0.0100649
10074.221,0.0100674
10117.988,0.0100728
10162.137,0.010081
10206.672,0.01009
10251.6,0.0101
10296.924,0.0101071
10342.65,0.0101134
10388.784,0.0101173
10435.331,0.0101205
10482.296,0.0101214
10529.686,0.0101192
10577.505,0.01012325
10625.761,0.010126
10674.458,0.0101258
10723.604,0.0101248
10773.203,0.0101292
10823.264,0.01012957
10873.791,0.0101277
10924.791,0.0101295
10976.272,0.0101314
11028.24,0.0101344
11080.702,0.0101359
11133.665,0.0101353
11187.137,0.0101341
11241.124,0.0101303
11295.634,0.0101304
11350.675,0.0101321
11406.254,0.010125
11462.38,0.0101201
11519.06,0.0101164
11576.304,0.0101138
11634.118,0.01011
11692.513,0.0101093
11751.496,0.0101092
11811.077,0.0101114
11871.265,0.0101177
11932.068,0.0101217
11993.497,0.0101214
12055.562,0.0101291
12118.271,0.0101315
12181.636,0.0101265
12245.667,0.0101236
12310.373,0.0101207
12375.767,0.0101178
12441.859,0.0101099
12508.659,0.0101096
12576.18,0.0101074
12644.434,0.0100965
12713.432,0.0100956
12783.187,0.0100988
12853.71,0.0101023
12925.016,0.0101026
12997.116,0.0101064
13070.025,0.0101138
13143.756,0.0101168
13218.322,0.0101231
13293.74,0.0101248
13370.021,0.0101254
13447.183,0.0101278
13525.24,0.0101251
13604.208,0.0101158
13684.103,0.0101088
13764.941,0.0100953
13846.739,0.0100861
13929.515,0.0100878
14013.285,0.0100855
14098.068,0.0100758
14183.883,0.0100662
14270.749,0.010058
14358.684,0.0100647
14447.709,0.0100657
14537.844,0.0100471
14629.109,0.0100382
14721.528,0.0100307
14815.121,0.0100182
14909.91,0.996846
15005.92,0.99413
15103.173,0.991515
15201.695,0.9839134
15301.509,0.9702223
15402.642,0.951937
15505.12,0.928722
15608.97,0.896832
15714.22,0.849226
15820.897,0.808439
15929.033,0.779318
15965.407,0.766554