File: csv_library/FTIR_PYX_13.csv
Database of Origin,University of Winnipeg Spectrophotometer Facility
Sample Description,"HOSERLab master pyroxenes, FTIR data"
Date Added,2016-12-14 03:34:49.8963

Data ID,FTIR_PYX_13
Sample ID,PYX112
Mineral Name,Orthopyroxene
Grain Size,<45 um
Viewing Geometry,"i=30, e=0"
Material Class,Inosilicate

Wavelength
2000.56,0.344479
2002.307,0.344374
2004.058,0.344991
2005.812,0.345533
2007.569,0.345956
2009.329,0.346894
2011.092,0.346972
2012.858,0.3472496
2014.627,0.348185
2016.399,0.348512
2018.174,0.3490799
2019.952,0.350248
2021.733,0.350577
2023.518,0.350751
2025.305,0.351117
2027.096,0.351753
2028.89,0.352158
2030.686,0.35303
2032.486,0.353497
2034.289,0.354467
2036.096,0.355406
2037.905,0.355168
2039.718,0.355936
2041.533,0.356926
2043.352,0.3570747
2045.174,0.357942
2047.0,0.358399
2048.828,0.358714
2050.66,0.359896
2052.495,0.360862
2054.333,0.360933
2056.175,0.361789
2058.019,0.361976
2059.867,0.362603
2061.718,0.363744
2063.573,0.364417
2065.431,0.365226
2067.292,0.365739
2069.156,0.366348
2071.024,0.367636
2072.895,0.3688898
2074.769,0.369376
2076.647,0.369825
2078.528,0.37014
2080.412,0.371035
2082.3,0.372094
2084.191,0.372582
2086.085,0.373643
2087.983,0.374501
2089.885,0.375513
2091.789,0.376381
2093.697,0.37728
2095.609,0.377926
2097.524,0.378484
2099.443,0.379161
2101.364,0.380001
2103.29,0.380569
2105.219,0.3814341
2107.151,0.382243
2109.087,0.382877
2111.026,0.383734
2112.969,0.384288
2114.915,0.384747
2116.865,0.385897
2118.819,0.387205
2120.776,0.388281
2122.736,0.388891
2124.7,0.390125
2126.668,0.390952
2128.64,0.391777
2130.614,0.3930855
2132.593,0.39356
2134.575,0.394048
2136.561,0.394701
2138.55,0.395493
2140.544,0.396721
2142.54,0.397603
2144.541,0.398811
2146.545,0.399733
2148.553,0.400366
2150.564,0.400831
2152.579,0.4016349
2154.598,0.402739
2156.621,0.403811
2158.647,0.404678
2160.678,0.405661
2162.712,0.40645
2164.749,0.407739
2166.791,0.408825
2168.836,0.4099058
2170.885,0.410782
2172.938,0.411644
2174.995,0.412907
2177.056,0.414186
2179.12,0.414642
2181.189,0.415118
2183.261,0.416124
2185.337,0.4174569
2187.417,0.417964
2189.501,0.419237
2191.589,0.420716
2193.68,0.42096
2195.776,0.42142
2197.876,0.422806
2199.979,0.424571
2202.087,0.42537
2204.199,0.425874
2206.314,0.4270693
2208.434,0.42845
2210.557,0.429187
2212.685,0.429898
2214.817,0.430882
2216.952,0.431217
2219.092,0.431985
2221.236,0.432893
2223.384,0.433579
2225.536,0.434102
2227.692,0.43495
2229.853,0.435298
2232.017,0.435325
2234.186,0.435737
2236.359,0.436544
2238.536,0.437344
2240.717,0.437964
2242.902,0.437831
2245.092,0.438157
2247.285,0.438605
2249.483,0.439641
2251.686,0.4409879
2253.892,0.441604
2256.103,0.442389
2258.318,0.4432555
2260.537,0.443808
2262.761,0.444525
2264.989,0.445066
2267.221,0.445276
2269.458,0.446118
2271.699,0.4470129
2273.944,0.447101
2276.194,0.447483
2278.448,0.448504
2280.707,0.448965
2282.97,0.448999
2285.237,0.448858
2287.509,0.4490133
2289.786,0.449368
2292.067,0.44933
2294.352,0.449529
2296.642,0.44955
2298.936,0.449264
2301.235,0.450042
2303.539,0.450441
2305.847,0.450391
2308.159,0.450358
2310.476,0.450089
2312.798,0.450188
2315.124,0.450703
2317.455,0.4512923
2319.791,0.451853
2322.131,0.452466
2324.476,0.453679
2326.826,0.455524
2329.18,0.456346
2331.54,0.457181
2333.903,0.458245
2336.272,0.459556
2338.645,0.460427
2341.023,0.461903
2343.406,0.462764
2345.794,0.4631057
2348.186,0.463725
2350.583,0.465195
2352.986,0.465795
2355.393,0.466651
2357.804,0.467064
2360.221,0.467416
2362.643,0.467959
2365.069,0.468042
2367.501,0.46832
2369.937,0.468798
2372.379,0.468882
2374.825,0.4693401
2377.276,0.469823
2379.733,0.469845
2382.194,0.469883
2384.661,0.470476
2387.132,0.470554
2389.609,0.470947
2392.09,0.471352
2394.577,0.472006
2397.069,0.472603
2399.566,0.472914
2402.068,0.473584
2404.575,0.474123
2407.088,0.474854
2409.606,0.4753
2412.128,0.475772
2414.657,0.476736
2417.19,0.477307
2419.729,0.477646
2422.272,0.477303
2424.822,0.4777899
2427.376,0.478235
2429.936,0.47836
2432.501,0.478537
2435.072,0.4788533
2437.648,0.478947
2440.229,0.479154
2442.816,0.479682
2445.408,0.479945
2448.006,0.480466
2450.609,0.480799
2453.217,0.480697
2455.831,0.481251
2458.451,0.482077
2461.076,0.481779
2463.707,0.481775
2466.343,0.482039
2468.985,0.481972
2471.632,0.482543
2474.285,0.482851
2476.944,0.482981
2479.608,0.483002
2482.278,0.4830764
2484.954,0.483487
2487.636,0.483934
2490.323,0.4845615
2493.016,0.484138
2495.715,0.484367
2498.419,0.484678
2501.129,0.484994
2503.845,0.485244
2506.567,0.485091
2509.295,0.485246
2512.029,0.485626
2514.769,0.486145
2517.514,0.486876
2520.266,0.486939
2523.023,0.487062
2525.787,0.486756
2528.556,0.487417
2531.331,0.487039
2534.113,0.487035
2536.9,0.487331
2539.694,0.488034
2542.494,0.4873864
2545.3,0.487706
2548.112,0.488261
2550.93,0.489333
2553.754,0.489106
2556.585,0.489063
2559.421,0.4889009
2562.264,0.488667
2565.113,0.489407
2567.969,0.49054
2570.831,0.489826
2573.699,0.49006
2576.573,0.490256
2579.454,0.491097
2582.342,0.490932
2585.235,0.490426
2588.135,0.491473
2591.042,0.49307
2593.955,0.496271
2596.874,0.491453
2599.8,0.492822
2602.733,0.49372
2605.672,0.493837
2608.618,0.492928
2611.57,0.492544
2614.529,0.493789
2617.495,0.493903
2620.467,0.493849
2623.446,0.493703
2626.431,0.494531
2629.424,0.495276
2632.423,0.4943857
2635.429,0.494635
2638.442,0.495006
2641.461,0.494572
2644.488,0.494963
2647.521,0.4948123
2650.561,0.495746
2653.609,0.495431
2656.663,0.495174
2659.724,0.495052
2662.792,0.495783
2665.867,0.496341
2668.949,0.495938
2672.038,0.492972
2675.135,0.492713
2678.238,0.489551
2681.349,0.484304
2684.467,0.4767019
2687.591,0.465872
2690.724,0.457111
2693.863,0.450653
2697.01,0.441699
2700.164,0.435743
2703.325,0.427201
2706.494,0.418864
2709.67,0.41127
2712.853,0.390761
2716.044,0.362195
2719.242,0.328238
2722.448,0.32049
2725.661,0.311936
2728.882,0.289792
2732.111,0.275842
2735.347,0.2749803
2738.59,0.272213
2741.841,0.266598
2745.1,0.25777
2748.367,0.25709
2751.641,0.25695
2754.923,0.256987
2758.213,0.2526924
2761.51,0.251574
2764.816,0.249574
2768.129,0.24923
2771.45,0.249242
2774.779,0.249046
2778.116,0.248428
2781.461,0.247239
2784.814,0.247165
2788.175,0.246033
2791.544,0.246108
2794.922,0.245575
2798.307,0.245224
2801.7,0.244049
2805.102,0.241948
2808.512,0.2435454
2811.93,0.243915
2815.356,0.244044
2818.791,0.244282
2822.233,0.244117
2825.685,0.245441
2829.144,0.245635
2832.612,0.2453389
2836.089,0.244435
2839.574,0.243677
2843.067,0.243757
2846.569,0.2438774
2850.08,0.24375
2853.599,0.2436912
2857.127,0.24331
2860.664,0.244098
2864.209,0.244305
2867.763,0.243476
2871.325,0.242448
2874.897,0.2425995
2878.477,0.2422202
2882.066,0.242266
2885.664,0.241632
2889.271,0.242081
2892.887,0.241453
2896.512,0.240413
2900.146,0.239676
2903.789,0.238987
2907.441,0.238961
2911.103,0.239632
2914.773,0.239872
2918.453,0.240694
2922.142,0.239937
2925.84,0.239572
2929.547,0.239348
2933.264,0.239536
2936.99,0.240391
2940.726,0.240838
2944.471,0.241577
2948.225,0.243853
2951.989,0.244034
2955.763,0.245352
2959.546,0.245179
2963.339,0.245936
2967.141,0.247182
2970.953,0.24834
2974.775,0.250811
2978.607,0.252357
2982.448,0.252769
2986.3,0.254208
2990.161,0.255785
2994.032,0.25711
2997.913,0.257918
3001.804,0.2601681
3005.705,0.261148
3009.616,0.261913
3013.538,0.2640602
3017.469,0.265278
3021.411,0.26586
3025.363,0.267694
3029.325,0.2707559
3033.298,0.273819
3037.281,0.273049
3041.274,0.274366
3045.278,0.276892
3049.292,0.277214
3053.317,0.277676
3057.352,0.27896
3061.398,0.280661
3065.455,0.282857
3069.522,0.283016
3073.6,0.283714
3077.689,0.2852874
3081.788,0.286673
3085.899,0.288006
3090.02,0.289568
3094.153,0.290265
3098.296,0.291914
3102.45,0.293505
3106.616,0.293336
3110.792,0.2949399
3114.98,0.296593
3119.179,0.297876
3123.389,0.299431
3127.611,0.301182
3131.844,0.302719
3136.088,0.304327
3140.344,0.306355
3144.611,0.308469
3148.89,0.310532
3153.18,0.3123704
3157.482,0.314221
3161.796,0.315971
3166.121,0.3178423
3170.458,0.319691
3174.807,0.321519
3179.168,0.324652
3183.541,0.326287
3187.926,0.326376
3192.323,0.3287
3196.731,0.330611
3201.152,0.331412
3205.585,0.332943
3210.031,0.3346135
3214.488,0.338275
3218.958,0.3399839
3223.441,0.339498
3227.936,0.34064
3232.443,0.341533
3236.963,0.343263
3241.495,0.343779
3246.04,0.346303
3250.598,0.348613
3255.168,0.35107
3259.751,0.351826
3264.347,0.351325
3268.956,0.353346
3273.578,0.353934
3278.213,0.354318
3282.861,0.356057
3287.522,0.357765
3292.196,0.3592
3296.884,0.3613473
3301.585,0.361096
3306.299,0.3623833
3311.026,0.362825
3315.767,0.364151
3320.522,0.365669
3325.29,0.368029
3330.072,0.37034
3334.867,0.36959
3339.676,0.3696704
3344.499,0.370772
3349.336,0.372228
3354.187,0.372553
3359.052,0.37203
3363.931,0.3736833
3368.824,0.374625
3373.731,0.374645
3378.652,0.374687
3383.588,0.375622
3388.538,0.376884
3393.502,0.3777535
3398.481,0.379094
3403.475,0.380325
3408.483,0.380761
3413.506,0.380212
3418.543,0.381194
3423.596,0.383221
3428.663,0.384285
3433.745,0.3857767
3438.842,0.3885308
3443.954,0.39081
3449.082,0.390311
3454.224,0.390526
3459.382,0.3911316
3464.556,0.391955
3469.744,0.391911
3474.948,0.39217
3480.168,0.3927734
3485.403,0.393798
3490.654,0.3962162
3495.921,0.396175
3501.204,0.396041
3506.502,0.397204
3511.817,0.3983322
3517.147,0.399214
3522.494,0.400216
3527.857,0.400898
3533.236,0.403229
3538.631,0.404108
3544.043,0.403908
3549.471,0.40423
3554.916,0.405028
3560.378,0.405521
3565.856,0.406307
3571.351,0.407343
3576.863,0.407568
3582.392,0.40853
3587.938,0.409458
3593.501,0.409853
3599.082,0.410364
3604.679,0.409909
3610.294,0.410365
3615.926,0.411726
3621.576,0.412066
3627.244,0.41222
3632.929,0.412694
3638.632,0.412763
3644.353,0.412983
3650.091,0.413968
3655.848,0.414276
3661.623,0.4143208
3667.416,0.414984
3673.227,0.41549
3679.057,0.416692
3684.905,0.417402
3690.771,0.416694
3696.656,0.416761
3702.56,0.417494
3708.483,0.41774
3714.425,0.417878
3720.385,0.418494
3726.365,0.419175
3732.364,0.420262
3738.382,0.421019
3744.419,0.422261
3750.476,0.4229891
3756.553,0.423173
3762.649,0.423814
3768.764,0.42431
3774.9,0.4243
3781.056,0.424447
3787.231,0.424672
3793.427,0.424873
3799.643,0.425122
3805.879,0.425702
3812.135,0.426156
3818.412,0.426536
3824.71,0.426861
3831.029,0.427272
3837.368,0.4277984
3843.728,0.428497
3850.109,0.429275
3856.512,0.430192
3862.935,0.430792
3869.38,0.431244
3875.846,0.431922
3882.334,0.432709
3888.844,0.433344
3895.375,0.433871
3901.929,0.434293
3908.504,0.434413
3915.101,0.4349649
3921.721,0.435713
3928.363,0.436635
3935.027,0.437279
3941.714,0.437853
3948.423,0.4385434
3955.156,0.439337
3961.911,0.440437
3968.689,0.441479
3975.491,0.442444
3982.315,0.443616
3989.163,0.444822
3996.035,0.445794
4002.93,0.447022
4009.849,0.448157
4016.791,0.4491581
4023.758,0.450021
4030.749,0.450649
4037.764,0.451621
4044.804,0.45256
4051.867,0.453912
4058.956,0.455204
4066.069,0.4564552
4073.207,0.457582
4080.371,0.459049
4087.559,0.461001
4094.773,0.462902
4102.012,0.464613
4109.276,0.466063
4116.566,0.46807
4123.882,0.470069
4131.224,0.472014
4138.592,0.473835
4145.987,0.475741
4153.407,0.477767
4160.854,0.480215
4168.328,0.482079
4175.829,0.4839677
4183.356,0.486467
4190.911,0.489428
4198.493,0.495447
4206.102,0.508326
4213.739,0.526709
4221.404,0.544976
4229.096,0.559317
4236.816,0.568304
4244.565,0.567055
4252.341,0.550057
4260.146,0.542981
4267.98,0.56164
4275.843,0.567598
4283.734,0.56899
4291.655,0.570901
4299.604,0.569246
4307.583,0.567898
4315.592,0.563601
4323.631,0.5603106
4331.699,0.557991
4339.797,0.555148
4347.926,0.554717
4356.085,0.556344
4364.275,0.557559
4372.495,0.560591
4380.746,0.56334
4389.029,0.567519
4397.342,0.571855
4405.687,0.5755421
4414.064,0.579705
4422.472,0.583862
4430.913,0.587712
4439.386,0.590738
4447.891,0.593156
4456.428,0.5958123
4464.998,0.598863
4473.602,0.6018176
4482.238,0.604646
4490.908,0.606845
4499.611,0.608907
4508.347,0.611587
4517.118,0.61384
4525.923,0.616333
4534.762,0.618665
4543.635,0.620491
4552.543,0.622662
4561.487,0.625679
4570.465,0.627602
4579.478,0.630327
4588.527,0.633565
4597.612,0.635684
4606.732,0.638655
4615.889,0.640495
4625.082,0.643331
4634.312,0.644974
4643.578,0.647404
4652.882,0.649673
4662.223,0.651993
4671.601,0.655301
4681.017,0.6590418
4690.471,0.65958
4699.962,0.662704
4709.493,0.666138
4719.062,0.668014
4728.669,0.671049
4738.316,0.674358
4748.002,0.676673
4757.728,0.680378
4767.494,0.683458
4777.299,0.686654
4787.145,0.6895
4797.032,0.691853
4806.959,0.694189
4816.927,0.697526
4826.937,0.698576
4836.988,0.698986
4847.081,0.701592
4857.216,0.704988
4867.393,0.7064011
4877.613,0.706851
4887.876,0.709937
4898.182,0.713859
4908.532,0.716514
4918.925,0.717533
4929.362,0.7203152
4939.844,0.723026
4950.37,0.72589
4960.941,0.728031
4971.556,0.729106
4982.218,0.731341
4992.925,0.7329211
5003.678,0.735393
5014.477,0.739266
5025.323,0.7418769
5036.216,0.742273
5047.156,0.7441301
5058.143,0.745797
5069.179,0.747309
5080.262,0.7507861
5091.394,0.7520696
5102.574,0.753261
5113.804,0.755237
5125.083,0.756691
5136.412,0.76014
5147.791,0.765178
5159.22,0.763623
5170.7,0.765354
5182.231,0.767845
5193.814,0.772763
5205.448,0.778582
5217.134,0.780499
5228.873,0.780456
5240.665,0.784539
5252.51,0.785981
5264.408,0.789113
5276.36,0.7937089
5288.367,0.798544
5300.428,0.799488
5312.544,0.800594
5324.715,0.803379
5336.942,0.807567
5349.226,0.81725
5361.566,0.81353
5373.962,0.813249
5386.417,0.814816
5398.928,0.81687
5411.498,0.824036
5424.127,0.83044
5436.814,0.825213
5449.561,0.8283902
5462.368,0.839459
5475.234,0.843465
5488.162,0.843413
5501.15,0.843907
5514.2,0.860571
5527.312,0.876683
5540.486,0.8877763
5553.723,0.797028
5567.023,0.645693
5580.387,0.677705
5593.815,0.752485
5607.307,0.777911
5620.865,0.798096
5634.489,0.808389
5648.178,0.811511
5661.934,0.814716
5675.757,0.8212065
5689.647,0.824709
5703.606,0.830211
5717.633,0.835858
5731.729,0.839369
5745.894,0.845714
5760.13,0.853903
5774.436,0.854723
5788.813,0.851052
5803.262,0.857511
5817.782,0.8712
5832.376,0.870124
5847.043,0.868647
5861.783,0.877683
5876.598,0.887759
5891.488,0.888318
5906.454,0.8788409
5921.495,0.884224
5936.613,0.894179
5951.809,0.888335
5967.082,0.890756
5982.433,0.891865
5997.864,0.889863
6013.374,0.891639
6028.964,0.893478
6044.636,0.905199
6060.389,0.902267
6076.224,0.901653
6092.141,0.900258
6108.143,0.909293
6124.228,0.903989
6140.398,0.906368
6156.654,0.909624
6172.996,0.912309
6189.424,0.912984
6205.94,0.912547
6222.544,0.91401
6239.237,0.915011
6256.02,0.916311
6272.893,0.91918
6289.858,0.918947
6306.914,0.920583
6324.062,0.924085
6341.304,0.9280668
6358.64,0.930002
6376.071,0.929943
6393.598,0.931107
6411.221,0.939093
6428.941,0.935337
6446.759,0.935175
6464.676,0.93763
6482.693,0.943199
6500.81,0.940996
6519.029,0.942948
6537.35,0.943091
6555.774,0.945759
6574.302,0.94826
6592.934,0.949069
6611.673,0.951479
6630.518,0.954597
6649.47,0.950038
6668.532,0.952986
6687.702,0.953448
6706.983,0.957243
6726.375,0.9554797
6745.879,0.955829
6765.497,0.958925
6785.229,0.960419
6805.076,0.9594424
6825.039,0.960695
6845.12,0.962868
6865.319,0.963709
6885.637,0.963133
6906.076,0.964507
6926.636,0.964309
6947.319,0.966089
6968.125,0.9669172
6989.057,0.968868
7010.114,0.969965
7031.298,0.971777
7052.611,0.972496
7074.052,0.973044
7095.625,0.974129
7117.329,0.975884
7139.166,0.977397
7161.137,0.977899
7183.244,0.978475
7205.487,0.97983
7227.869,0.980661
7250.39,0.981984
7273.051,0.982932
7295.854,0.9839672
7318.8,0.985051
7341.891,0.985792
7365.128,0.986878
7388.512,0.988537
7412.045,0.990189
7435.728,0.991114
7459.562,0.992067
7483.55,0.993004
7507.692,0.993704
7531.99,0.994434
7556.446,0.995299
7581.061,0.995864
7605.837,0.996133
7630.774,0.996351
7655.876,0.996796
7681.143,0.997763
7706.577,0.998445
7732.18,0.998771
7757.953,0.999617
7783.899,0.0100063
7810.018,0.0100183
7836.313,0.0100316
7862.786,0.010045
7889.437,0.0100595
7916.27,0.0100687
7943.285,0.0100796
7970.485,0.0100933
7997.872,0.0101073
8025.448,0.010117
8053.214,0.0101274
8081.173,0.0101367
8109.326,0.0101425
8137.676,0.0101536
8166.224,0.0101619
8194.973,0.010175
8223.925,0.0101851
8253.082,0.0101939
8282.446,0.0102063
8312.02,0.010218
8341.805,0.010231
8371.804,0.0102402
8402.02,0.0102486
8432.454,0.0102567
8463.109,0.0102656
8493.988,0.0102729
8525.092,0.010279
8556.425,0.0102849
8587.989,0.0102909
8619.786,0.0102944
8651.819,0.0102973
8684.091,0.0103055
8716.604,0.0103138
8749.361,0.0103229
8782.365,0.0103296
8815.619,0.0103401
8849.125,0.0103527
8882.887,0.0103606
8916.907,0.0103712
8951.188,0.0103797
8985.733,0.0103842
9020.546,0.0103832
9055.629,0.0103801
9090.986,0.0103792
9126.62,0.0103737
9162.534,0.0103629
9198.731,0.0103567
9235.215,0.0103508
9271.99,0.0103469
9309.058,0.010345
9346.423,0.0103452
9384.089,0.010347
9422.06,0.0103509
9460.339,0.0103533
9498.929,0.0103599
9537.836,0.0103622
9577.062,0.0103666
9616.612,0.0103683
9656.49,0.0103697
9696.699,0.0103732
9737.244,0.0103757
9778.129,0.010375
9819.359,0.0103733
9860.938,0.0103748
9902.869,0.0103769
9945.159,0.0103755
9987.811,0.0103736
10030.83,0.0103772
10074.221,0.0103791
10117.988,0.0103826
10162.137,0.0103889
10206.672,0.0103957
10251.6,0.0104008
10296.924,0.0104036
10342.65,0.0104083
10388.784,0.0104119
10435.331,0.0104135
10482.296,0.0104098
10529.686,0.0104089
10577.505,0.0104127
10625.761,0.0104142
10674.458,0.0104136
10723.604,0.0104125
10773.203,0.0104151
10823.264,0.0104148
10873.791,0.0104141
10924.791,0.0104169
10976.272,0.0104202
11028.24,0.0104259
11080.702,0.0104277
11133.665,0.0104247
11187.137,0.010421
11241.124,0.0104171
11295.634,0.0104138
11350.675,0.0104103
11406.254,0.0104027
11462.38,0.010397
11519.06,0.0103913
11576.304,0.0103838
11634.118,0.0103814
11692.513,0.0103771
11751.496,0.010374
11811.077,0.0103734
11871.265,0.0103766
11932.068,0.0103798
11993.497,0.0103758
12055.562,0.0103808
12118.271,0.0103811
12181.636,0.0103772
12245.667,0.01037407
12310.373,0.0103721
12375.767,0.0103667
12441.859,0.0103593
12508.659,0.010362
12576.18,0.0103586
12644.434,0.0103526
12713.432,0.0103544
12783.187,0.0103559
12853.71,0.0103584
12925.016,0.0103608
12997.116,0.0103657
13070.025,0.0103728
13143.756,0.0103746
13218.322,0.0103784
13293.74,0.0103809
13370.021,0.0103827
13447.183,0.0103838
13525.24,0.0103794
13604.208,0.010371
13684.103,0.0103622
13764.941,0.0103491
13846.739,0.0103415
13929.515,0.0103395
14013.285,0.0103303
14098.068,0.0103251
14183.883,0.0103156
14270.749,0.0103069
14358.684,0.0103126
14447.709,0.0103104
14537.844,0.0102971
14629.109,0.0102882
14721.528,0.0102842
14815.121,0.0102749
14909.91,0.0102364
15005.92,0.0102273
15103.173,0.0102085
15201.695,0.0101475
15301.509,0.0100195
15402.642,0.987937
15505.12,0.969149
15608.97,0.94467
15714.22,0.8957096
15820.897,0.851661
15929.033,0.805966
15965.407,0.780348