File: csv_library/FTIR_CLAY_08.csv
Database of Origin,University of Winnipeg Spectrophotometer Facility
Sample Description,See Master Clays in HOSERLab database
Date Added,2016-12-11 20:56:55.233

Data ID,FTIR_CLAY_08
Sample ID,HIS001
Mineral Name,Hisingerite
Grain Size,<45 m
Viewing Geometry,35/0
Resolution,11-72 nm
Material Class,Phyllosilicate

Wavelength
2001.142,0.39713
2003.474,0.39829
2005.812,0.399142
2008.155,0.400258
2010.504,0.401433
2012.858,0.402207
2015.217,0.403092
2017.582,0.404016
2019.952,0.405327
2022.328,0.406268
2024.709,0.407115
2027.096,0.408181
2029.488,0.408617
2031.886,0.410069
2034.289,0.410542
2036.698,0.411746
2039.113,0.412445
2041.533,0.413049
2043.959,0.41401
2046.391,0.414448
2048.828,0.414895
2051.271,0.415558
2053.72,0.41598
2056.175,0.41624
2058.635,0.41698
2061.101,0.417343
2063.573,0.418359
2066.051,0.418535
2068.534,0.418613
2071.024,0.419852
2073.519,0.4200169
2076.02,0.420347
2078.528,0.420636
2081.041,0.420732
2083.56,0.421044
2086.085,0.421807
2088.617,0.421804
2091.154,0.422152
2093.697,0.422405
2096.247,0.423101
2098.803,0.423899
2101.364,0.424231
2103.932,0.424621
2106.506,0.425517
2109.087,0.424958
2111.673,0.425969
2114.266,0.426322
2116.865,0.426956
2119.471,0.427036
2122.082,0.427089
2124.7,0.427157
2127.325,0.426653
2129.956,0.426058
2132.593,0.42621
2135.237,0.426888
2137.887,0.426855
2140.544,0.427243
2143.207,0.426538
2145.876,0.426517
2148.553,0.426478
2151.235,0.4265
2153.925,0.426216
2156.621,0.42572
2159.324,0.424441
2162.033,0.424307
2164.749,0.4250237
2167.472,0.424658
2170.202,0.42475
2172.938,0.4240058
2175.682,0.423791
2178.432,0.423334
2181.189,0.423384
2183.952,0.42298
2186.723,0.421737
2189.501,0.421299
2192.285,0.4210821
2195.077,0.420368
2197.876,0.419914
2200.682,0.41967
2203.494,0.418924
2206.314,0.418506
2209.141,0.418673
2211.975,0.418779
2214.817,0.41769
2217.665,0.417045
2220.521,0.417344
2223.384,0.416473
2226.254,0.415868
2229.132,0.415381
2232.017,0.414625
2234.91,0.413668
2237.809,0.413072
2240.717,0.412416
2243.631,0.411518
2246.554,0.410584
2249.483,0.409222
2252.421,0.40761
2255.365,0.406578
2258.318,0.405777
2261.278,0.404135
2264.246,0.401973
2267.221,0.399979
2270.204,0.39733
2273.195,0.395394
2276.194,0.393413
2279.201,0.3906811
2282.215,0.388107
2285.237,0.386462
2288.268,0.384198
2291.306,0.381635
2294.352,0.38076
2297.406,0.380525
2300.468,0.379446
2303.539,0.378526
2306.617,0.378011
2309.703,0.377991
2312.798,0.378295
2315.901,0.378907
2319.012,0.379031
2322.131,0.380084
2325.259,0.381274
2328.395,0.38224
2331.54,0.381874
2334.692,0.381409
2337.854,0.3814272
2341.023,0.380723
2344.201,0.380426
2347.388,0.378971
2350.583,0.378046
2353.787,0.377295
2357.0,0.376328
2360.221,0.374718
2363.451,0.373751
2366.69,0.371969
2369.937,0.370293
2373.194,0.368286
2376.459,0.36673
2379.733,0.365002
2383.016,0.363262
2386.308,0.361182
2389.609,0.360074
2392.919,0.358731
2396.238,0.35768
2399.566,0.356265
2402.903,0.355278
2406.25,0.3535454
2409.606,0.352556
2412.971,0.350979
2416.345,0.349835
2419.729,0.3482195
2423.122,0.347058
2426.524,0.3456614
2429.936,0.343706
2433.358,0.342265
2436.789,0.340197
2440.229,0.338773
2443.679,0.336877
2447.139,0.335293
2450.609,0.332762
2454.088,0.331296
2457.577,0.329077
2461.076,0.3270848
2464.585,0.325464
2468.104,0.323752
2471.632,0.322039
2475.171,0.3203034
2478.72,0.318793
2482.278,0.317265
2485.847,0.315325
2489.427,0.314045
2493.016,0.3127079
2496.615,0.311581
2500.225,0.310305
2503.845,0.309201
2507.476,0.307669
2511.117,0.307082
2514.769,0.30627
2518.431,0.305546
2522.103,0.305646
2525.787,0.304733
2529.48,0.304428
2533.185,0.305382
2536.9,0.304359
2540.627,0.304289
2544.364,0.30496
2548.112,0.304975
2551.87,0.305905
2555.64,0.303234
2559.421,0.306419
2563.213,0.310429
2567.016,0.305055
2570.831,0.305767
2574.656,0.307262
2578.493,0.304573
2582.342,0.306956
2586.201,0.305611
2590.072,0.302221
2593.955,0.312112
2597.849,0.30082
2601.755,0.30031
2605.672,0.303813
2609.601,0.29668
2613.542,0.293936
2617.495,0.297925
2621.459,0.2921323
2625.435,0.288636
2629.424,0.291015
2633.424,0.284807
2637.437,0.278019
2641.461,0.275946
2645.498,0.273767
2649.547,0.268391
2653.609,0.267493
2657.682,0.261748
2661.768,0.258602
2665.867,0.2642353
2669.978,0.259231
2674.102,0.244268
2678.238,0.24363
2682.387,0.225269
2686.549,0.216131
2690.724,0.199859
2694.911,0.192818
2699.112,0.168713
2703.325,0.157166
2707.552,0.1508397
2711.791,0.149661
2716.044,0.123958
2720.31,0.131376
2724.589,0.113707
2728.882,0.08412953
2733.188,0.07151784
2737.508,0.06211493
2741.841,0.05718855
2746.188,0.04039403
2750.549,0.03618037
2754.923,0.03748681
2759.311,0.03158207
2763.713,0.03132912
2768.129,0.03023592
2772.559,0.02828417
2777.003,0.02599809
2781.461,0.02597066
2785.934,0.02618411
2790.42,0.02482684
2794.922,0.02370731
2799.437,0.02287199
2803.967,0.02468104
2808.512,0.02232589
2813.071,0.0218948
2817.645,0.02206438
2822.233,0.02197519
2826.837,0.02119833
2831.455,0.02120424
2836.089,0.02160046
2840.737,0.020392
2845.401,0.01939327
2850.08,0.01964443
2854.774,0.01918864
2859.484,0.01900633
2864.209,0.01905054
2868.949,0.01887227
2873.705,0.01845689
2878.477,0.01791488
2883.265,0.01777003
2888.068,0.01811956
2892.887,0.01772789
2897.723,0.01730428
2902.574,0.01719743
2907.441,0.01676413
2912.325,0.01678314
2917.225,0.01731773
2922.142,0.01713841
2927.075,0.01644492
2932.024,0.01603495
2936.99,0.01654276
2941.973,0.01674548
2946.973,0.01718921
2951.989,0.01660387
2957.023,0.01696909
2962.073,0.01586309
2967.141,0.01606777
2972.226,0.01653084
2977.328,0.01744579
2982.448,0.01675792
2987.586,0.01630512
2992.74,0.01715871
2997.913,0.01650872
3003.103,0.01713986
3008.312,0.01650965
3013.538,0.01712568
3018.782,0.01710163
3024.044,0.01721837
3029.325,0.01776348
3034.624,0.01928707
3039.942,0.01781254
3045.278,0.01899714
3050.632,0.0186024
3056.006,0.0183378
3061.398,0.01892142
3066.809,0.02019615
3072.239,0.01928677
3077.689,0.01973603
3083.157,0.02007867
3088.645,0.02098714
3094.153,0.02093899
3099.679,0.02198151
3105.226,0.02163424
3110.792,0.02148097
3116.378,0.02221144
3121.985,0.02252466
3127.611,0.02311796
3133.257,0.02317111
3138.924,0.0239238
3144.611,0.02421069
3150.319,0.02505942
3156.047,0.02578947
3161.796,0.0262413
3167.566,0.02702144
3173.356,0.02815143
3179.168,0.02995338
3185.001,0.03066736
3190.856,0.03079501
3196.731,0.03261521
3202.629,0.03261113
3208.548,0.03344827
3214.488,0.03734719
3220.451,0.03822007
3226.436,0.03780053
3232.443,0.03769877
3238.472,0.03884758
3244.523,0.04064469
3250.598,0.0426529
3256.694,0.04527982
3262.814,0.0439884
3268.956,0.0453355
3275.122,0.04591172
3281.31,0.04709251
3287.522,0.04912491
3293.757,0.05108185
3300.016,0.0527345
3306.299,0.05346321
3312.605,0.05417233
3318.936,0.05550605
3325.29,0.05891471
3331.669,0.06154248
3338.072,0.05983246
3344.499,0.06164743
3350.952,0.06390604
3357.429,0.06408766
3363.931,0.06623056
3370.458,0.06773494
3377.01,0.0679936
3383.588,0.06937383
3390.191,0.07143694
3396.82,0.07409499
3403.475,0.07646147
3410.156,0.07735763
3416.862,0.07751347
3423.596,0.08108756
3430.355,0.08322329
3437.141,0.08675562
3443.954,0.09181613
3450.794,0.0915297
3457.661,0.09341569
3464.556,0.09616105
3471.477,0.09771537
3478.426,0.09925469
3485.403,0.10126
3492.408,0.1053617
3499.441,0.104871
3506.502,0.107267
3513.592,0.110424
3520.71,0.11401
3527.857,0.116944
3535.032,0.121484
3542.237,0.122598
3549.471,0.124742
3556.735,0.127801
3564.028,0.1305198
3571.351,0.134002
3578.704,0.136352
3586.088,0.140024
3593.501,0.142362
3600.946,0.144891
3608.421,0.146635
3615.926,0.150094
3623.463,0.151898
3631.032,0.154125
3638.632,0.1564661
3646.263,0.159322
3653.927,0.162566
3661.623,0.164562
3669.351,0.167704
3677.111,0.1707085
3684.905,0.173836
3692.731,0.1760242
3700.59,0.178896
3708.483,0.1814315
3716.409,0.184249
3724.37,0.186956
3732.364,0.189485
3740.392,0.192389
3748.455,0.195589
3756.553,0.197581
3764.685,0.20002
3772.853,0.202907
3781.056,0.205492
3789.294,0.208289
3797.568,0.210767
3805.879,0.21349
3814.225,0.215783
3822.609,0.218168
3831.029,0.220433
3839.486,0.222862
3847.98,0.224919
3856.512,0.2274304
3865.081,0.229789
3873.689,0.232087
3882.334,0.234489
3891.019,0.236883
3899.742,0.239392
3908.504,0.241685
3917.305,0.243843
3926.146,0.246133
3935.027,0.248243
3943.948,0.250489
3952.909,0.252592
3961.911,0.254728
3970.954,0.257005
3980.038,0.259278
3989.163,0.260977
3998.33,0.26269
4007.54,0.264232
4016.791,0.265974
4026.086,0.267434
4035.423,0.268824
4044.804,0.270726
4054.228,0.272488
4063.695,0.274528
4073.207,0.2763518
4082.764,0.278216
4092.365,0.280484
4102.012,0.283028
4111.703,0.285558
4121.441,0.287911
4131.224,0.290569
4141.054,0.293797
4150.931,0.296752
4160.854,0.299785
4170.826,0.302792
4180.844,0.305796
4190.911,0.310453
4201.026,0.322612
4211.19,0.3509693
4221.404,0.387249
4231.666,0.4166695
4241.979,0.4241593
4252.341,0.3935659
4262.754,0.3833117
4273.219,0.410572
4283.734,0.411709
4294.301,0.410936
4304.92,0.404864
4315.592,0.39517
4326.317,0.385446
4337.095,0.378716
4347.926,0.375222
4358.811,0.374763
4369.751,0.375876
4380.746,0.378072
4391.796,0.382858
4402.902,0.387353
4414.064,0.3916526
4425.282,0.395664
4436.558,0.3994
4447.891,0.403042
4459.281,0.406651
4470.73,0.40995
4482.238,0.413197
4493.805,0.416135
4505.431,0.41941
4517.118,0.422521
4528.865,0.425637
4540.674,0.429618
4552.543,0.432276
4564.475,0.435802
4576.47,0.439776
4588.527,0.443241
4600.648,0.446294
4612.833,0.449559
4625.082,0.453481
4637.397,0.457256
4649.777,0.460495
4662.223,0.464742
4674.735,0.468659
4687.315,0.473039
4699.962,0.47711
4712.678,0.480936
4725.463,0.484801
4738.316,0.488447
4751.24,0.492396
4764.234,0.496761
4777.299,0.5019847
4790.436,0.506037
4803.645,0.508554
4816.927,0.5119138
4830.283,0.515782
4843.712,0.520909
4857.216,0.52307
4870.795,0.526814
4884.451,0.530515
4898.182,0.535398
4911.991,0.537592
4925.878,0.540821
4939.844,0.544462
4953.888,0.550626
4968.013,0.551858
4982.218,0.5546735
4996.504,0.558062
5010.872,0.562932
5025.323,0.569896
5039.857,0.567646
5054.475,0.570546
5069.179,0.574262
5083.967,0.581956
5098.842,0.581184
5113.804,0.584674
5128.854,0.5871528
5143.992,0.598817
5159.22,0.594349
5174.538,0.595734
5189.947,0.600021
5205.448,0.611895
5221.041,0.609684
5236.728,0.611724
5252.51,0.6106757
5268.386,0.615028
5284.358,0.622785
5300.428,0.623836
5316.595,0.622626
5332.86,0.62576
5349.226,0.651052
5365.692,0.6352335
5382.259,0.635518
5398.928,0.638282
5415.701,0.6637008
5432.579,0.658769
5449.561,0.66186
5466.65,0.694477
5483.846,0.696181
5501.15,0.704501
5518.564,0.746632
5536.087,0.805284
5553.723,0.940719
5571.47,0.642371
5589.332,0.456353
5607.307,0.485417
5625.399,0.523042
5643.607,0.5571068
5661.934,0.563167
5680.379,0.579825
5698.945,0.585827
5717.633,0.606122
5736.443,0.607409
5755.377,0.617904
5774.436,0.624365
5793.621,0.610919
5812.934,0.634532
5832.376,0.636777
5851.948,0.632063
5871.652,0.658826
5891.488,0.664426
5911.459,0.640924
5931.565,0.674214
5951.809,0.65512
5972.19,0.667825
5992.711,0.666643
6013.374,0.661614
6034.179,0.674023
6055.129,0.695866
6076.224,0.684141
6097.466,0.678225
6118.857,0.687359
6140.398,0.681764
6162.091,0.689574
6183.938,0.69881
6205.94,0.688597
6228.099,0.691978
6250.416,0.694409
6272.893,0.698526
6295.533,0.700313
6318.336,0.704939
6341.304,0.726837
6364.44,0.72784
6387.745,0.7272256
6411.221,0.7745468
6434.869,0.740355
6458.693,0.742414
6482.693,0.78308
6506.872,0.758693
6531.231,0.755326
6555.774,0.775495
6580.501,0.782268
6605.415,0.77104
6630.518,0.800076
6655.812,0.766036
6681.3,0.772623
6706.983,0.781823
6732.864,0.764437
6758.945,0.770973
6785.229,0.789982
6811.718,0.773317
6838.413,0.781016
6865.319,0.793724
6892.437,0.775816
6919.769,0.770657
6947.319,0.785959
6975.089,0.781976
7003.081,0.781798
7031.298,0.795262
7059.743,0.787479
7088.419,0.784774
7117.329,0.791032
7146.475,0.8032161
7175.86,0.798872
7205.487,0.802296
7235.36,0.799322
7265.481,0.808975
7295.854,0.806201
7326.481,0.814612
7357.366,0.810088
7388.512,0.81082
7419.922,0.812246
7451.601,0.821762
7483.55,0.8187711
7515.774,0.818906
7548.277,0.821622
7581.061,0.8262255
7614.131,0.826915
7647.491,0.827738
7681.143,0.829223
7715.093,0.831037
7749.343,0.833051
7783.899,0.833798
7818.764,0.834877
7853.942,0.837172
7889.437,0.838818
7925.254,0.8413268
7961.398,0.842398
7997.872,0.844014
8034.682,0.845941
8071.832,0.847557
8109.326,0.849048
8147.169,0.850426
8185.368,0.851216
8223.925,0.851947
8262.847,0.852418
8302.139,0.85316
8341.805,0.85422
8381.852,0.8554723
8422.285,0.856852
8463.109,0.857439
8504.331,0.8580568
8545.955,0.858829
8587.989,0.859784
8630.437,0.860777
8673.307,0.861802
8716.604,0.86265
8760.335,0.863267
8804.507,0.864111
8849.125,0.864898
8894.198,0.866107
8939.732,0.866702
8985.733,0.8673345
9032.21,0.86827
9079.17,0.868576
9126.62,0.869003
9174.568,0.869066
9223.022,0.869094
9271.99,0.86957
9321.48,0.869854
9371.5,0.870377
9422.06,0.870862
9473.167,0.871961
9524.832,0.872854
9577.062,0.874047
9629.868,0.875173
9683.259,0.876186
9737.244,0.877265
9791.834,0.8788409
9847.039,0.880083
9902.869,0.881123
9959.336,0.881984
10016.449,0.882928
10074.221,0.883696
10132.662,0.884612
10191.784,0.885617
10251.6,0.886382
10312.121,0.887115
10373.36,0.8879452
10435.331,0.888831
10498.045,0.8896245
10561.517,0.8902414
10625.761,0.890602
10690.79,0.891011
10756.619,0.890615
10823.264,0.890462
10890.738,0.8898262
10959.058,0.889514
11028.24,0.8887758
11098.301,0.88821
11169.256,0.88779
11241.124,0.887921
11313.921,0.8883019
11387.667,0.888925
11462.38,0.889423
11538.079,0.890172
11614.783,0.890545
11692.513,0.890894
11771.29,0.891207
11851.134,0.891676
11932.068,0.891724
12014.114,0.8920125
12097.296,0.891648
12181.636,0.8905607
12267.16,0.89098
12353.892,0.891825
12441.859,0.89166
12531.086,0.8915934
12621.601,0.891394
12713.432,0.891535
12806.608,0.8914694
12901.159,0.892207
12997.116,0.891574
13094.51,0.891201
13193.373,0.890657
13293.74,0.890325
13395.644,0.890357
13499.121,0.89038
13604.208,0.889926
13710.943,0.890162
13819.365,0.889595
13929.515,0.88781
14041.433,0.886167
14155.163,0.883697
14270.749,0.880081
14388.237,0.875042
14507.674,0.869244
14629.109,0.859806
14752.594,0.846368
14878.179,0.830962
15005.92,0.808158
15135.871,0.769741
15268.092,0.717096
15402.642,0.64514
15539.583,0.560355
15678.979,0.470884
15820.897,0.39808
15965.407,0.336431