File: csv_library/FTIR_CLAY_06.csv
Database of Origin,University of Winnipeg Spectrophotometer Facility
Sample Description,See Master Clays in HOSERLab database
Date Added,2016-12-11 20:56:55.1932

Data ID,FTIR_CLAY_06
Sample ID,GRE001
Mineral Name,Greenalite
Grain Size,<45 m
Viewing Geometry,35/0
Resolution,11-72 nm
Material Class,Phyllosilicate

Wavelength
2001.142,0.11718
2003.474,0.117321
2005.812,0.1171389
2008.155,0.117426
2010.504,0.116841
2012.858,0.117357
2015.217,0.117336
2017.582,0.11671
2019.952,0.117391
2022.328,0.117002
2024.709,0.116904
2027.096,0.116839
2029.488,0.117454
2031.886,0.117117
2034.289,0.117259
2036.698,0.117904
2039.113,0.118054
2041.533,0.118558
2043.959,0.117966
2046.391,0.118836
2048.828,0.118927
2051.271,0.117841
2053.72,0.118693
2056.175,0.118523
2058.635,0.118193
2061.101,0.118159
2063.573,0.118697
2066.051,0.118703
2068.534,0.118709
2071.024,0.118876
2073.519,0.118702
2076.02,0.118783
2078.528,0.118863
2081.041,0.118647
2083.56,0.119078
2086.085,0.11882
2088.617,0.119345
2091.154,0.119201
2093.697,0.119237
2096.247,0.11896
2098.803,0.1197977
2101.364,0.11948
2103.932,0.1192739
2106.506,0.119017
2109.087,0.118473
2111.673,0.118442
2114.266,0.1177992
2116.865,0.118341
2119.471,0.118727
2122.082,0.118526
2124.7,0.119036
2127.325,0.119352
2129.956,0.119191
2132.593,0.11863
2135.237,0.11823
2137.887,0.117921
2140.544,0.118792
2143.207,0.11939
2145.876,0.119363
2148.553,0.1197354
2151.235,0.119758
2153.925,0.119812
2156.621,0.120031
2159.324,0.120103
2162.033,0.120653
2164.749,0.12052
2167.472,0.1202299
2170.202,0.121176
2172.938,0.1212112
2175.682,0.120941
2178.432,0.120947
2181.189,0.121187
2183.952,0.121245
2186.723,0.121548
2189.501,0.121442
2192.285,0.121716
2195.077,0.121766
2197.876,0.121534
2200.682,0.122205
2203.494,0.122007
2206.314,0.1217895
2209.141,0.121668
2211.975,0.1218516
2214.817,0.121603
2217.665,0.122702
2220.521,0.1223428
2223.384,0.122002
2226.254,0.12205
2229.132,0.122333
2232.017,0.122085
2234.91,0.121905
2237.809,0.121426
2240.717,0.1218
2243.631,0.122244
2246.554,0.122052
2249.483,0.122169
2252.421,0.1223795
2255.365,0.121829
2258.318,0.121569
2261.278,0.121489
2264.246,0.1211892
2267.221,0.121374
2270.204,0.121189
2273.195,0.121283
2276.194,0.120835
2279.201,0.121263
2282.215,0.120926
2285.237,0.120827
2288.268,0.120924
2291.306,0.121243
2294.352,0.121276
2297.406,0.120937
2300.468,0.1202217
2303.539,0.120318
2306.617,0.119934
2309.703,0.1197438
2312.798,0.119437
2315.901,0.119786
2319.012,0.119634
2322.131,0.119068
2325.259,0.119333
2328.395,0.119697
2331.54,0.119083
2334.692,0.119034
2337.854,0.118706
2341.023,0.118275
2344.201,0.117865
2347.388,0.118107
2350.583,0.1182304
2353.787,0.118747
2357.0,0.119432
2360.221,0.119672
2363.451,0.1205782
2366.69,0.12116
2369.937,0.121345
2373.194,0.121876
2376.459,0.1227676
2379.733,0.122949
2383.016,0.122965
2386.308,0.12335
2389.609,0.1239065
2392.919,0.123531
2396.238,0.123838
2399.566,0.123922
2402.903,0.123745
2406.25,0.123463
2409.606,0.123273
2412.971,0.123797
2416.345,0.123841
2419.729,0.123636
2423.122,0.123562
2426.524,0.123485
2429.936,0.123368
2433.358,0.123563
2436.789,0.123451
2440.229,0.12341
2443.679,0.123389
2447.139,0.123349
2450.609,0.12291
2454.088,0.122892
2457.577,0.123068
2461.076,0.122525
2464.585,0.122401
2468.104,0.122262
2471.632,0.122326
2475.171,0.122262
2478.72,0.1222059
2482.278,0.122257
2485.847,0.122158
2489.427,0.122349
2493.016,0.12243
2496.615,0.122819
2500.225,0.12284
2503.845,0.123129
2507.476,0.122985
2511.117,0.123152
2514.769,0.123309
2518.431,0.123394
2522.103,0.124025
2525.787,0.124143
2529.48,0.124594
2533.185,0.126122
2536.9,0.125738
2540.627,0.125933
2544.364,0.126829
2548.112,0.126781
2551.87,0.128262
2555.64,0.125654
2559.421,0.128767
2563.213,0.134611
2567.016,0.128063
2570.831,0.129597
2574.656,0.13152
2578.493,0.128976
2582.342,0.132885
2586.201,0.133177
2590.072,0.1300541
2593.955,0.140989
2597.849,0.130883
2601.755,0.130802
2605.672,0.136665
2609.601,0.130546
2613.542,0.129008
2617.495,0.136727
2621.459,0.13148
2625.435,0.129716
2629.424,0.135233
2633.424,0.132534
2637.437,0.127418
2641.461,0.128051
2645.498,0.129672
2649.547,0.127172
2653.609,0.131223
2657.682,0.129808
2661.768,0.1324103
2665.867,0.143474
2669.978,0.143933
2674.102,0.134878
2678.238,0.140385
2682.387,0.128692
2686.549,0.13054
2690.724,0.126381
2694.911,0.133282
2699.112,0.123786
2703.325,0.121339
2707.552,0.119199
2711.791,0.119939
2716.044,0.102329
2720.31,0.105086
2724.589,0.09210587
2728.882,0.07052313
2733.188,0.06041364
2737.508,0.05258435
2741.841,0.04908767
2746.188,0.03865647
2750.549,0.03635753
2754.923,0.03683592
2759.311,0.03300007
2763.713,0.03298314
2768.129,0.03157134
2772.559,0.03159322
2777.003,0.0310673
2781.461,0.0307426
2785.934,0.03023364
2790.42,0.03018061
2794.922,0.02987102
2799.437,0.02972663
2803.967,0.03085368
2808.512,0.03124203
2813.071,0.03129227
2817.645,0.03157446
2822.233,0.03192063
2826.837,0.03243731
2831.455,0.03262853
2836.089,0.03322333
2840.737,0.03363433
2845.401,0.03429307
2850.08,0.03403991
2854.774,0.03428809
2859.484,0.03438731
2864.209,0.0346485
2868.949,0.03453562
2873.705,0.03471671
2878.477,0.03467584
2883.265,0.03385555
2888.068,0.03479284
2892.887,0.03468037
2897.723,0.03354151
2902.574,0.0331987
2907.441,0.03326073
2912.325,0.03323558
2917.225,0.03462483
2922.142,0.03437655
2927.075,0.03347741
2932.024,0.03328289
2936.99,0.03390444
2941.973,0.0338814
2946.973,0.03598887
2951.989,0.03529467
2957.023,0.0360744
2962.073,0.03428383
2967.141,0.03498811
2972.226,0.03562989
2977.328,0.03813255
2982.448,0.03604181
2987.586,0.03587243
2992.74,0.03791704
2997.913,0.03704171
3003.103,0.03886574
3008.312,0.03752621
3013.538,0.03870934
3018.782,0.03878945
3024.044,0.03883659
3029.325,0.0412002
3034.624,0.0432376
3039.942,0.04104041
3045.278,0.04290162
3050.632,0.04142254
3056.006,0.04165104
3061.398,0.04331839
3066.809,0.04513779
3072.239,0.04352616
3077.689,0.04416886
3083.157,0.04430408
3088.645,0.0454746
3094.153,0.04509267
3099.679,0.0466238
3105.226,0.04615251
3110.792,0.04564414
3116.378,0.04618765
3121.985,0.04650881
3127.611,0.04676975
3133.257,0.04672099
3138.924,0.04720282
3144.611,0.04809863
3150.319,0.04816205
3156.047,0.04860679
3161.796,0.04902697
3167.566,0.04933708
3173.356,0.04961036
3179.168,0.05209874
3185.001,0.05243565
3190.856,0.05204912
3196.731,0.05374054
3202.629,0.05321493
3208.548,0.05353541
3214.488,0.05786058
3220.451,0.0579048
3226.436,0.05626501
3232.443,0.05563127
3238.472,0.05615859
3244.523,0.05747048
3250.598,0.05926149
3256.694,0.06183747
3262.814,0.05876679
3268.956,0.05969174
3275.122,0.05912609
3281.31,0.05962103
3287.522,0.061025
3293.757,0.06229989
3300.016,0.06265911
3306.299,0.0629017
3312.605,0.06193859
3318.936,0.0624305
3325.29,0.06503
3331.669,0.06634712
3338.072,0.06242531
3344.499,0.06372948
3350.952,0.06533482
3357.429,0.0632923
3363.931,0.06471159
3370.458,0.06505375
3377.01,0.06385274
3383.588,0.0642706
3390.191,0.06485089
3396.82,0.06642858
3403.475,0.06842874
3410.156,0.06845586
3416.862,0.06700144
3423.596,0.06923865
3430.355,0.06893178
3437.141,0.07150452
3443.954,0.07543247
3450.794,0.07193184
3457.661,0.07211452
3464.556,0.07325141
3471.477,0.07279663
3478.426,0.07321076
3485.403,0.07384927
3492.408,0.07733231
3499.441,0.07518589
3506.502,0.07624977
3513.592,0.07682416
3520.71,0.07802403
3527.857,0.07893423
3535.032,0.08243775
3542.237,0.08084965
3549.471,0.0807475
3556.735,0.08149295
3564.028,0.08215384
3571.351,0.08381677
3578.704,0.0835746
3586.088,0.08558761
3593.501,0.08608145
3600.946,0.08650949
3608.421,0.08565618
3615.926,0.0880215
3623.463,0.08751059
3631.032,0.0878787
3638.632,0.08855896
3646.263,0.089642
3653.927,0.0908505
3661.623,0.09079542
3669.351,0.09176948
3677.111,0.09265016
3684.905,0.09438121
3692.731,0.09398267
3700.59,0.09478884
3708.483,0.09551837
3716.409,0.09624531
3724.37,0.09697062
3732.364,0.09783951
3740.392,0.09945076
3748.455,0.101363
3756.553,0.101316
3764.685,0.101992
3772.853,0.102986
3781.056,0.103904
3789.294,0.104781
3797.568,0.10598
3805.879,0.107384
3814.225,0.108313
3822.609,0.109632
3831.029,0.110524
3839.486,0.111732
3847.98,0.11317
3856.512,0.114499
3865.081,0.11577
3873.689,0.1169393
3882.334,0.118682
3891.019,0.119958
3899.742,0.1213
3908.504,0.122703
3917.305,0.124291
3926.146,0.125798
3935.027,0.127467
3943.948,0.128828
3952.909,0.1304934
3961.911,0.132558
3970.954,0.134516
3980.038,0.13654
3989.163,0.138398
3998.33,0.140165
4007.54,0.142084
4016.791,0.1440881
4026.086,0.145953
4035.423,0.148161
4044.804,0.150573
4054.228,0.153149
4063.695,0.155387
4073.207,0.157999
4082.764,0.1609004
4092.365,0.163245
4102.012,0.165747
4111.703,0.168486
4121.441,0.171209
4131.224,0.174052
4141.054,0.176898
4150.931,0.179999
4160.854,0.183288
4170.826,0.186452
4180.844,0.189472
4190.911,0.193716
4201.026,0.203801
4211.19,0.225316
4221.404,0.251205
4231.666,0.273071
4241.979,0.2806226
4252.341,0.262462
4262.754,0.257129
4273.219,0.277135
4283.734,0.278322
4294.301,0.279474
4304.92,0.277236
4315.592,0.271072
4326.317,0.265784
4337.095,0.261549
4347.926,0.25955
4358.811,0.260278
4369.751,0.261721
4380.746,0.2643
4391.796,0.268586
4402.902,0.272954
4414.064,0.2771965
4425.282,0.281478
4436.558,0.285418
4447.891,0.28983
4459.281,0.294011
4470.73,0.298527
4482.238,0.302825
4493.805,0.306985
4505.431,0.311314
4517.118,0.315785
4528.865,0.320128
4540.674,0.324459
4552.543,0.328537
4564.475,0.333028
4576.47,0.337154
4588.527,0.341109
4600.648,0.345503
4612.833,0.350295
4625.082,0.354719
4637.397,0.359223
4649.777,0.364044
4662.223,0.368704
4674.735,0.3736948
4687.315,0.378328
4699.962,0.3829156
4712.678,0.387757
4725.463,0.393013
4738.316,0.397748
4751.24,0.402395
4764.234,0.407227
4777.299,0.412189
4790.436,0.417576
4803.645,0.421527
4816.927,0.426507
4830.283,0.4308092
4843.712,0.437067
4857.216,0.439753
4870.795,0.44406
4884.451,0.447827
4898.182,0.453454
4911.991,0.456295
4925.878,0.460352
4939.844,0.464925
4953.888,0.471678
4968.013,0.473523
4982.218,0.476933
4996.504,0.480873
5010.872,0.486731
5025.323,0.49482
5039.857,0.493491
5054.475,0.497335
5069.179,0.501507
5083.967,0.510562
5098.842,0.510491
5113.804,0.514962
5128.854,0.518646
5143.992,0.531956
5159.22,0.528735
5174.538,0.532067
5189.947,0.5379081
5205.448,0.551662
5221.041,0.550476
5236.728,0.554786
5252.51,0.554617
5268.386,0.560509
5284.358,0.57006
5300.428,0.57208
5316.595,0.572052
5332.86,0.576215
5349.226,0.604291
5365.692,0.589026
5382.259,0.590556
5398.928,0.594547
5415.701,0.620951
5432.579,0.61454
5449.561,0.615215
5466.65,0.641757
5483.846,0.634405
5501.15,0.628995
5518.564,0.646598
5536.087,0.65729
5553.723,0.70494
5571.47,0.578878
5589.332,0.561381
5607.307,0.58478
5625.399,0.601529
5643.607,0.629892
5661.934,0.6235671
5680.379,0.635012
5698.945,0.642562
5717.633,0.666559
5736.443,0.663596
5755.377,0.6743578
5774.436,0.681371
5793.621,0.665208
5812.934,0.694876
5832.376,0.700414
5851.948,0.6961551
5871.652,0.725854
5891.488,0.734103
5911.459,0.707595
5931.565,0.745547
5951.809,0.723695
5972.19,0.735736
5992.711,0.733993
6013.374,0.7284629
6034.179,0.743643
6055.129,0.768026
6076.224,0.7541
6097.466,0.749558
6118.857,0.757815
6140.398,0.75274
6162.091,0.760029
6183.938,0.767512
6205.94,0.755814
6228.099,0.758286
6250.416,0.758961
6272.893,0.763396
6295.533,0.764612
6318.336,0.768897
6341.304,0.792264
6364.44,0.793169
6387.745,0.792146
6411.221,0.840797
6434.869,0.806353
6458.693,0.80784
6482.693,0.849328
6506.872,0.824053
6531.231,0.820011
6555.774,0.840409
6580.501,0.846502
6605.415,0.834917
6630.518,0.866177
6655.812,0.83061
6681.3,0.837557
6706.983,0.848485
6732.864,0.831519
6758.945,0.838658
6785.229,0.858119
6811.718,0.842435
6838.413,0.851685
6865.319,0.864764
6892.437,0.848301
6919.769,0.8442099
6947.319,0.859242
6975.089,0.857656
7003.081,0.858127
7031.298,0.871406
7059.743,0.86466
7088.419,0.86243
7117.329,0.868633
7146.475,0.880189
7175.86,0.875332
7205.487,0.87843
7235.36,0.875404
7265.481,0.885119
7295.854,0.882466
7326.481,0.89085
7357.366,0.886791
7388.512,0.8878871
7419.922,0.889823
7451.601,0.900163
7483.55,0.896921
7515.774,0.89742
7548.277,0.900593
7581.061,0.905064
7614.131,0.905397
7647.491,0.905915
7681.143,0.907767
7715.093,0.909923
7749.343,0.912544
7783.899,0.9136173
7818.764,0.91562
7853.942,0.91886
7889.437,0.921193
7925.254,0.923993
7961.398,0.925862
7997.872,0.927738
8034.682,0.930233
8071.832,0.931896
8109.326,0.934298
8147.169,0.936291
8185.368,0.937843
8223.925,0.939707
8262.847,0.941056
8302.139,0.942911
8341.805,0.944441
8381.852,0.946246
8422.285,0.948062
8463.109,0.949446
8504.331,0.950954
8545.955,0.9523741
8587.989,0.953727
8630.437,0.955089
8673.307,0.95638
8716.604,0.957749
8760.335,0.958925
8804.507,0.960752
8849.125,0.962086
8894.198,0.963635
8939.732,0.965478
8985.733,0.966634
9032.21,0.967547
9079.17,0.967954
9126.62,0.968314
9174.568,0.968332
9223.022,0.968257
9271.99,0.968338
9321.48,0.968401
9371.5,0.968812
9422.06,0.969258
9473.167,0.969888
9524.832,0.970872
9577.062,0.971749
9629.868,0.97268
9683.259,0.97342
9737.244,0.973768
9791.834,0.974409
9847.039,0.975149
9902.869,0.975741
9959.336,0.976113
10016.449,0.976961
10074.221,0.977564
10132.662,0.978343
10191.784,0.979095
10251.6,0.979705
10312.121,0.9808333
10373.36,0.981664
10435.331,0.98207
10498.045,0.982481
10561.517,0.982931
10625.761,0.983096
10690.79,0.983307
10756.619,0.983546
10823.264,0.983861
10890.738,0.984221
10959.058,0.984346
11028.24,0.984794
11098.301,0.984737
11169.256,0.984747
11241.124,0.985379
11313.921,0.98564
11387.667,0.985412
11462.38,0.985694
11538.079,0.985727
11614.783,0.9855973
11692.513,0.985612
11771.29,0.985872
11851.134,0.985835
11932.068,0.986446
12014.114,0.98649
12097.296,0.98693
12181.636,0.986938
12267.16,0.986756
12353.892,0.986558
12441.859,0.986828
12531.086,0.986842
12621.601,0.986764
12713.432,0.986696
12806.608,0.9869696
12901.159,0.987289
12997.116,0.98761
13094.51,0.987385
13193.373,0.9877603
13293.74,0.987902
13395.644,0.987984
13499.121,0.987932
13604.208,0.987473
13710.943,0.9873653
13819.365,0.986738
13929.515,0.98528
14041.433,0.983871
14155.163,0.982598
14270.749,0.981178
14388.237,0.97934
14507.674,0.97641
14629.109,0.971705
14752.594,0.965087
14878.179,0.95861
15005.92,0.9456479
15135.871,0.925365
15268.092,0.895495
15402.642,0.85251
15539.583,0.7927984
15678.979,0.714299
15820.897,0.630062
15965.407,0.54969