File: csv_library/FTIR_PYX_03.csv
Database of Origin,University of Winnipeg Spectrophotometer Facility
Sample Description,"HOSERLab master pyroxenes, FTIR data"
Date Added,2016-12-14 03:34:49.5769

Data ID,FTIR_PYX_03
Sample ID,PYX023
Mineral Name,Orthopyroxene
Grain Size,<45 um
Viewing Geometry,"i=30, e=0"
Material Class,Inosilicate

Wavelength
2000.56,0.587388
2002.307,0.587652
2004.058,0.588668
2005.812,0.589614
2007.569,0.590289
2009.329,0.59123
2011.092,0.591863
2012.858,0.592257
2014.627,0.593352
2016.399,0.594199
2018.174,0.594255
2019.952,0.595187
2021.733,0.595758
2023.518,0.595946
2025.305,0.596797
2027.096,0.597944
2028.89,0.597889
2030.686,0.598298
2032.486,0.5996
2034.289,0.601289
2036.096,0.602265
2037.905,0.60244
2039.718,0.603336
2041.533,0.604159
2043.352,0.604837
2045.174,0.605795
2047.0,0.606327
2048.828,0.606986
2050.66,0.608005
2052.495,0.609295
2054.333,0.609839
2056.175,0.610355
2058.019,0.611503
2059.867,0.612593
2061.718,0.612842
2063.573,0.6130202
2065.431,0.614144
2067.292,0.614689
2069.156,0.615526
2071.024,0.616441
2072.895,0.617384
2074.769,0.617881
2076.647,0.61808
2078.528,0.618273
2080.412,0.619317
2082.3,0.620823
2084.191,0.621075
2086.085,0.621396
2087.983,0.622377
2089.885,0.623231
2091.789,0.623901
2093.697,0.624106
2095.609,0.624655
2097.524,0.625412
2099.443,0.626528
2101.364,0.627745
2103.29,0.628635
2105.219,0.629636
2107.151,0.630597
2109.087,0.631623
2111.026,0.632899
2112.969,0.6333509
2114.915,0.633816
2116.865,0.634968
2118.819,0.636104
2120.776,0.6369
2122.736,0.636988
2124.7,0.637582
2126.668,0.637488
2128.64,0.637278
2130.614,0.638439
2132.593,0.640011
2134.575,0.641307
2136.561,0.642149
2138.55,0.643185
2140.544,0.643684
2142.54,0.645184
2144.541,0.6457321
2146.545,0.6461743
2148.553,0.647016
2150.564,0.647849
2152.579,0.6480291
2154.598,0.648247
2156.621,0.648747
2158.647,0.649779
2160.678,0.650341
2162.712,0.650684
2164.749,0.651066
2166.791,0.651831
2168.836,0.6523008
2170.885,0.653215
2172.938,0.653586
2174.995,0.65404
2177.056,0.654837
2179.12,0.655195
2181.189,0.6549961
2183.261,0.656405
2185.337,0.657274
2187.417,0.657681
2189.501,0.658786
2191.589,0.659193
2193.68,0.659361
2195.776,0.659199
2197.876,0.660331
2199.979,0.661532
2202.087,0.661619
2204.199,0.661683
2206.314,0.662015
2208.434,0.66268
2210.557,0.663076
2212.685,0.6629206
2214.817,0.663386
2216.952,0.663315
2219.092,0.663655
2221.236,0.663591
2223.384,0.662523
2225.536,0.662328
2227.692,0.662354
2229.853,0.662274
2232.017,0.6611637
2234.186,0.660091
2236.359,0.65998
2238.536,0.659845
2240.717,0.659319
2242.902,0.658741
2245.092,0.657924
2247.285,0.657599
2249.483,0.657833
2251.686,0.657758
2253.892,0.657378
2256.103,0.657195
2258.318,0.656698
2260.537,0.655833
2262.761,0.654777
2264.989,0.653227
2267.221,0.650773
2269.458,0.649707
2271.699,0.649448
2273.944,0.6492383
2276.194,0.647958
2278.448,0.646885
2280.707,0.645462
2282.97,0.644364
2285.237,0.6422748
2287.509,0.640089
2289.786,0.63846
2292.067,0.635521
2294.352,0.634377
2296.642,0.633264
2298.936,0.632193
2301.235,0.631541
2303.539,0.6300292
2305.847,0.628053
2308.159,0.626019
2310.476,0.622688
2312.798,0.619803
2315.124,0.618756
2317.455,0.618133
2319.791,0.617812
2322.131,0.618714
2324.476,0.621225
2326.826,0.6236091
2329.18,0.625143
2331.54,0.6266497
2333.903,0.628835
2336.272,0.630721
2338.645,0.6327991
2341.023,0.636163
2343.406,0.638938
2345.794,0.641603
2348.186,0.643789
2350.583,0.64624
2352.986,0.647414
2355.393,0.648967
2357.804,0.649601
2360.221,0.649728
2362.643,0.6500484
2365.069,0.649644
2367.501,0.648502
2369.937,0.646841
2372.379,0.645
2374.825,0.643593
2377.276,0.642053
2379.733,0.640671
2382.194,0.638623
2384.661,0.638266
2387.132,0.638932
2389.609,0.639416
2392.09,0.63973
2394.577,0.640313
2397.069,0.641668
2399.566,0.642635
2402.068,0.6440663
2404.575,0.644368
2407.088,0.644302
2409.606,0.64424
2412.128,0.643562
2414.657,0.64328
2417.19,0.642797
2419.729,0.641821
2422.272,0.6407723
2424.822,0.641019
2427.376,0.64065
2429.936,0.639958
2432.501,0.639179
2435.072,0.639024
2437.648,0.638911
2440.229,0.638392
2442.816,0.638557
2445.408,0.6388257
2448.006,0.639249
2450.609,0.639159
2453.217,0.638643
2455.831,0.638591
2458.451,0.638366
2461.076,0.6379913
2463.707,0.638163
2466.343,0.637639
2468.985,0.636952
2471.632,0.636939
2474.285,0.636352
2476.944,0.634991
2479.608,0.633648
2482.278,0.633912
2484.954,0.633994
2487.636,0.633151
2490.323,0.632899
2493.016,0.631585
2495.715,0.630773
2498.419,0.629966
2501.129,0.629536
2503.845,0.6290065
2506.567,0.628697
2509.295,0.628441
2512.029,0.629014
2514.769,0.629044
2517.514,0.629236
2520.266,0.629486
2523.023,0.6303452
2525.787,0.629827
2528.556,0.630283
2531.331,0.630395
2534.113,0.630656
2536.9,0.630614
2539.694,0.630442
2542.494,0.629978
2545.3,0.6305
2548.112,0.630501
2550.93,0.630722
2553.754,0.629829
2556.585,0.628912
2559.421,0.629756
2562.264,0.62996
2565.113,0.628765
2567.969,0.629972
2570.831,0.630097
2573.699,0.630883
2576.573,0.631196
2579.454,0.631327
2582.342,0.631695
2585.235,0.631507
2588.135,0.631618
2591.042,0.633221
2593.955,0.637497
2596.874,0.6319309
2599.8,0.631827
2602.733,0.633266
2605.672,0.633708
2608.618,0.632359
2611.57,0.63267
2614.529,0.633068
2617.495,0.632624
2620.467,0.632223
2623.446,0.631132
2626.431,0.631765
2629.424,0.632115
2632.423,0.630125
2635.429,0.628713
2638.442,0.628019
2641.461,0.626502
2644.488,0.625652
2647.521,0.62336
2650.561,0.622369
2653.609,0.619624
2656.663,0.6169845
2659.724,0.614269
2662.792,0.611395
2665.867,0.607949
2668.949,0.600441
2672.038,0.586327
2675.135,0.574832
2678.238,0.554743
2681.349,0.5263173
2684.467,0.491612
2687.591,0.443263
2690.724,0.392026
2693.863,0.3447148
2697.01,0.286351
2700.164,0.245476
2703.325,0.216219
2706.494,0.196292
2709.67,0.193493
2712.853,0.186929
2716.044,0.179777
2719.242,0.185036
2722.448,0.183486
2725.661,0.182591
2728.882,0.1770927
2732.111,0.176573
2735.347,0.177623
2738.59,0.178989
2741.841,0.1808475
2745.1,0.17762
2748.367,0.178893
2751.641,0.181084
2754.923,0.184211
2758.213,0.1837932
2761.51,0.185269
2764.816,0.187869
2768.129,0.189828
2771.45,0.191347
2774.779,0.19228
2778.116,0.194804
2781.461,0.196969
2784.814,0.198667
2788.175,0.200088
2791.544,0.201949
2794.922,0.203438
2798.307,0.2050327
2801.7,0.206148
2805.102,0.206722
2808.512,0.20855
2811.93,0.209596
2815.356,0.210734
2818.791,0.212492
2822.233,0.213389
2825.685,0.214822
2829.144,0.215661
2832.612,0.216218
2836.089,0.216963
2839.574,0.217955
2843.067,0.2186512
2846.569,0.218956
2850.08,0.2198476
2853.599,0.220859
2857.127,0.220715
2860.664,0.222016
2864.209,0.223059
2867.763,0.22306
2871.325,0.223115
2874.897,0.223769
2878.477,0.223921
2882.066,0.224064
2885.664,0.224341
2889.271,0.225374
2892.887,0.225045
2896.512,0.224487
2900.146,0.224339
2903.789,0.2243405
2907.441,0.224274
2911.103,0.224792
2914.773,0.224946
2918.453,0.225713
2922.142,0.225664
2925.84,0.225479
2929.547,0.2252552
2933.264,0.225033
2936.99,0.226128
2940.726,0.226521
2944.471,0.227131
2948.225,0.228854
2951.989,0.228406
2955.763,0.22939
2959.546,0.229001
2963.339,0.2297075
2967.141,0.230955
2970.953,0.231639
2974.775,0.233765
2978.607,0.23473
2982.448,0.234598
2986.3,0.235701
2990.161,0.23747
2994.032,0.238724
2997.913,0.2393952
3001.804,0.241538
3005.705,0.242129
3009.616,0.242713
3013.538,0.244237
3017.469,0.245169
3021.411,0.24606
3025.363,0.247287
3029.325,0.2494443
3033.298,0.251811
3037.281,0.251116
3041.274,0.252002
3045.278,0.253963
3049.292,0.25421
3053.317,0.2549171
3057.352,0.255582
3061.398,0.257138
3065.455,0.258985
3069.522,0.258672
3073.6,0.25935
3077.689,0.260511
3081.788,0.261446
3085.899,0.262307
3090.02,0.263255
3094.153,0.263676
3098.296,0.265202
3102.45,0.266727
3106.616,0.266797
3110.792,0.267964
3114.98,0.269244
3119.179,0.270465
3123.389,0.272217
3127.611,0.273645
3131.844,0.2748388
3136.088,0.276368
3140.344,0.277952
3144.611,0.2798476
3148.89,0.281668
3153.18,0.2830032
3157.482,0.284467
3161.796,0.28634
3166.121,0.288563
3170.458,0.290544
3174.807,0.292182
3179.168,0.295186
3183.541,0.296859
3187.926,0.297084
3192.323,0.299833
3196.731,0.301642
3201.152,0.302335
3205.585,0.304534
3210.031,0.306051
3214.488,0.310039
3218.958,0.3117839
3223.441,0.311696
3227.936,0.313602
3232.443,0.314166
3236.963,0.315904
3241.495,0.31762
3246.04,0.3200512
3250.598,0.322054
3255.168,0.324546
3259.751,0.326165
3264.347,0.326403
3268.956,0.328494
3273.578,0.329847
3278.213,0.330515
3282.861,0.33254
3287.522,0.3345793
3292.196,0.335955
3296.884,0.338106
3301.585,0.338488
3306.299,0.339824
3311.026,0.340736
3315.767,0.342312
3320.522,0.343977
3325.29,0.3465409
3330.072,0.348687
3334.867,0.348103
3339.676,0.3484044
3344.499,0.3500105
3349.336,0.351371
3354.187,0.351819
3359.052,0.351523
3363.931,0.352813
3368.824,0.353556
3373.731,0.35358
3378.652,0.353447
3383.588,0.354294
3388.538,0.3559839
3393.502,0.3568515
3398.481,0.3579229
3403.475,0.3587445
3408.483,0.358746
3413.506,0.357513
3418.543,0.358366
3423.596,0.361691
3428.663,0.364409
3433.745,0.367162
3438.842,0.3707613
3443.954,0.373625
3449.082,0.373647
3454.224,0.374593
3459.382,0.375752
3464.556,0.377277
3469.744,0.37815
3474.948,0.378887
3480.168,0.380115
3485.403,0.381236
3490.654,0.383463
3495.921,0.3836909
3501.204,0.383297
3506.502,0.384904
3511.817,0.387485
3517.147,0.3898014
3522.494,0.392485
3527.857,0.394252
3533.236,0.397176
3538.631,0.398561
3544.043,0.398938
3549.471,0.400199
3554.916,0.401505
3560.378,0.402745
3565.856,0.4039538
3571.351,0.405167
3576.863,0.405886
3582.392,0.407144
3587.938,0.408309
3593.501,0.409498
3599.082,0.410624
3604.679,0.410569
3610.294,0.411638
3615.926,0.413285
3621.576,0.4139938
3627.244,0.414985
3632.929,0.415837
3638.632,0.416653
3644.353,0.417621
3650.091,0.4194832
3655.848,0.420421
3661.623,0.420848
3667.416,0.42182
3673.227,0.422876
3679.057,0.424086
3684.905,0.425185
3690.771,0.426077
3696.656,0.4273246
3702.56,0.428697
3708.483,0.429496
3714.425,0.430595
3720.385,0.43162
3726.365,0.432233
3732.364,0.433808
3738.382,0.4352336
3744.419,0.4368704
3750.476,0.438273
3756.553,0.439143
3762.649,0.44001
3768.764,0.441007
3774.9,0.44224
3781.056,0.442833
3787.231,0.443952
3793.427,0.445028
3799.643,0.445766
3805.879,0.446294
3812.135,0.447267
3818.412,0.448534
3824.71,0.449457
3831.029,0.450115
3837.368,0.451032
3843.728,0.45259
3850.109,0.454174
3856.512,0.455408
3862.935,0.456542
3869.38,0.458077
3875.846,0.45944
3882.334,0.460516
3888.844,0.4616984
3895.375,0.462698
3901.929,0.464187
3908.504,0.465172
3915.101,0.466077
3921.721,0.466959
3928.363,0.468105
3935.027,0.468976
3941.714,0.470309
3948.423,0.471833
3955.156,0.47345
3961.911,0.47482
3968.689,0.476341
3975.491,0.478082
3982.315,0.479361
3989.163,0.480315
3996.035,0.48163
4002.93,0.482846
4009.849,0.483866
4016.791,0.484651
4023.758,0.485486
4030.749,0.486549
4037.764,0.4873606
4044.804,0.487774
4051.867,0.48908
4058.956,0.490428
4066.069,0.491788
4073.207,0.492952
4080.371,0.494119
4087.559,0.495752
4094.773,0.4968921
4102.012,0.498186
4109.276,0.4996325
4116.566,0.500981
4123.882,0.502731
4131.224,0.504421
4138.592,0.505639
4145.987,0.5073129
4153.407,0.509397
4160.854,0.511163
4168.328,0.5123853
4175.829,0.513833
4183.356,0.515679
4190.911,0.5178094
4198.493,0.522991
4206.102,0.534032
4213.739,0.549835
4221.404,0.56599
4229.096,0.57895
4236.816,0.587256
4244.565,0.586194
4252.341,0.57047
4260.146,0.563652
4267.98,0.580813
4275.843,0.586404
4283.734,0.587778
4291.655,0.589578
4299.604,0.588216
4307.583,0.587188
4315.592,0.583074
4323.631,0.579862
4331.699,0.577796
4339.797,0.575451
4347.926,0.5756636
4356.085,0.576958
4364.275,0.577908
4372.495,0.58032
4380.746,0.583267
4389.029,0.586901
4397.342,0.590771
4405.687,0.594014
4414.064,0.597581
4422.472,0.601227
4430.913,0.604732
4439.386,0.607351
4447.891,0.609815
4456.428,0.612439
4464.998,0.615223
4473.602,0.61796
4482.238,0.620394
4490.908,0.621916
4499.611,0.623903
4508.347,0.626225
4517.118,0.627868
4525.923,0.629531
4534.762,0.630824
4543.635,0.63224
4552.543,0.6340173
4561.487,0.6359333
4570.465,0.637144
4579.478,0.638552
4588.527,0.64025
4597.612,0.641061
4606.732,0.643376
4615.889,0.643802
4625.082,0.64501
4634.312,0.645891
4643.578,0.647785
4652.882,0.649432
4662.223,0.652028
4671.601,0.655163
4681.017,0.658595
4690.471,0.659243
4699.962,0.662112
4709.493,0.665767
4719.062,0.667778
4728.669,0.669922
4738.316,0.671746
4748.002,0.673127
4757.728,0.675587
4767.494,0.677508
4777.299,0.679687
4787.145,0.681874
4797.032,0.683035
4806.959,0.684625
4816.927,0.687266
4826.937,0.688037
4836.988,0.689018
4847.081,0.691532
4857.216,0.694344
4867.393,0.695672
4877.613,0.696969
4887.876,0.699299
4898.182,0.70316
4908.532,0.705177
4918.925,0.707311
4929.362,0.7112143
4939.844,0.712796
4950.37,0.715425
4960.941,0.717625
4971.556,0.718626
4982.218,0.720586
4992.925,0.721608
5003.678,0.72356
5014.477,0.726633
5025.323,0.728266
5036.216,0.727534
5047.156,0.728525
5058.143,0.72939
5069.179,0.73064
5080.262,0.734137
5091.394,0.734956
5102.574,0.7356593
5113.804,0.737522
5125.083,0.739025
5136.412,0.742662
5147.791,0.748293
5159.22,0.747561
5170.7,0.750467
5182.231,0.754081
5193.814,0.760104
5205.448,0.766933
5217.134,0.769157
5228.873,0.7687714
5240.665,0.77279
5252.51,0.773619
5264.408,0.776527
5276.36,0.7809465
5288.367,0.785724
5300.428,0.78608
5312.544,0.7866
5324.715,0.789149
5336.942,0.793167
5349.226,0.803519
5361.566,0.799189
5373.962,0.798403
5386.417,0.799914
5398.928,0.802155
5411.498,0.8102
5424.127,0.817562
5436.814,0.8113281
5449.561,0.815013
5462.368,0.826425
5475.234,0.829827
5488.162,0.82676
5501.15,0.822826
5514.2,0.833392
5527.312,0.845554
5540.486,0.844445
5553.723,0.805628
5567.023,0.722794
5580.387,0.734868
5593.815,0.793524
5607.307,0.8077106
5620.865,0.819792
5634.489,0.827768
5648.178,0.825464
5661.934,0.821032
5675.757,0.82846
5689.647,0.82899
5703.606,0.833118
5717.633,0.839419
5731.729,0.839148
5745.894,0.844619
5760.13,0.854488
5774.436,0.853558
5788.813,0.844878
5803.262,0.84894
5817.782,0.866408
5832.376,0.863251
5847.043,0.858643
5861.783,0.869847
5876.598,0.882962
5891.488,0.881984
5906.454,0.868642
5921.495,0.873854
5936.613,0.887542
5951.809,0.877097
5967.082,0.880656
5982.433,0.8818
5997.864,0.878004
6013.374,0.878409
6028.964,0.8800001
6044.636,0.899557
6060.389,0.893502
6076.224,0.8904761
6092.141,0.88577
6108.143,0.89938
6124.228,0.890778
6140.398,0.8921115
6156.654,0.895607
6172.996,0.896627
6189.424,0.8961176
6205.94,0.892683
6222.544,0.892693
6239.237,0.892948
6256.02,0.893532
6272.893,0.896353
6289.858,0.895901
6306.914,0.896345
6324.062,0.901248
6341.304,0.908248
6358.64,0.908804
6376.071,0.908734
6393.598,0.911198
6411.221,0.926067
6428.941,0.915963
6446.759,0.913224
6464.676,0.917933
6482.693,0.928387
6500.81,0.922209
6519.029,0.921541
6537.35,0.921747
6555.774,0.927481
6574.302,0.931047
6592.934,0.928658
6611.673,0.930794
6630.518,0.938569
6649.47,0.928468
6668.532,0.9313423
6687.702,0.930497
6706.983,0.935579
6726.375,0.931854
6745.879,0.930974
6765.497,0.936334
6785.229,0.9396128
6805.076,0.935143
6825.039,0.93733
6845.12,0.941714
6865.319,0.942668
6885.637,0.938415
6906.076,0.93949
6926.636,0.938664
6947.319,0.942981
6968.125,0.943113
6989.057,0.943974
7010.114,0.9445449
7031.298,0.948398
7052.611,0.948731
7074.052,0.94735
7095.625,0.948835
7117.329,0.950959
7139.166,0.953528
7161.137,0.9544791
7183.244,0.953956
7205.487,0.955471
7227.869,0.955278
7250.39,0.957118
7273.051,0.9586157
7295.854,0.958702
7318.8,0.960485
7341.891,0.961399
7365.128,0.961043
7388.512,0.962925
7412.045,0.964344
7435.728,0.965381
7459.562,0.967194
7483.55,0.967173
7507.692,0.967759
7531.99,0.9685245
7556.446,0.969408
7581.061,0.970002
7605.837,0.970276
7630.774,0.970213
7655.876,0.970462
7681.143,0.9714462
7706.577,0.9721332
7732.18,0.972351
7757.953,0.973367
7783.899,0.974356
7810.018,0.975341
7836.313,0.976577
7862.786,0.9779666
7889.437,0.979491
7916.27,0.980565
7943.285,0.981496
7970.485,0.982564
7997.872,0.983894
8025.448,0.98464
8053.214,0.985692
8081.173,0.986627
8109.326,0.987107
8137.676,0.988051
8166.224,0.988809
8194.973,0.989922
8223.925,0.990685
8253.082,0.991404
8282.446,0.992336
8312.02,0.993322
8341.805,0.9945019
8371.804,0.995371
8402.02,0.9962059
8432.454,0.996926
8463.109,0.997416
8493.988,0.998195
8525.092,0.998432
8556.425,0.998764
8587.989,0.999453
8619.786,0.999697
8651.819,0.999955
8684.091,0.0100073
8716.604,0.0100144
8749.361,0.0100227
8782.365,0.0100314
8815.619,0.0100409
8849.125,0.0100511
8882.887,0.0100603
8916.907,0.0100691
8951.188,0.0100779
8985.733,0.0100825
9020.546,0.0100822
9055.629,0.010077
9090.986,0.0100752
9126.62,0.0100714
9162.534,0.0100601
9198.731,0.0100505
9235.215,0.0100455
9271.99,0.0100426
9309.058,0.0100412
9346.423,0.0100399
9384.089,0.0100412
9422.06,0.0100464
9460.339,0.0100491
9498.929,0.0100552
9537.836,0.0100595
9577.062,0.0100656
9616.612,0.010069
9656.49,0.0100715
9696.699,0.0100778
9737.244,0.010079
9778.129,0.0100779
9819.359,0.0100733
9860.938,0.0100722
9902.869,0.0100732
9945.159,0.0100744
9987.811,0.0100749
10030.83,0.01008
10074.221,0.0100821
10117.988,0.0100876
10162.137,0.0100952
10206.672,0.0101041
10251.6,0.0101119
10296.924,0.0101164
10342.65,0.0101204
10388.784,0.0101244
10435.331,0.0101263
10482.296,0.0101246
10529.686,0.0101239
10577.505,0.0101276
10625.761,0.0101296
10674.458,0.0101252
10723.604,0.0101227
10773.203,0.0101242
10823.264,0.010124
10873.791,0.0101222
10924.791,0.0101222
10976.272,0.0101239
11028.24,0.0101283
11080.702,0.0101285
11133.665,0.0101244
11187.137,0.0101237
11241.124,0.0101184
11295.634,0.0101149
11350.675,0.0101132
11406.254,0.010106
11462.38,0.0100997
11519.06,0.0100926
11576.304,0.0100869
11634.118,0.0100857
11692.513,0.0100815
11751.496,0.0100784
11811.077,0.0100792
11871.265,0.0100826
11932.068,0.0100883
11993.497,0.0100877
12055.562,0.010092
12118.271,0.0100904
12181.636,0.0100875
12245.667,0.0100829
12310.373,0.0100792
12375.767,0.010075
12441.859,0.0100681
12508.659,0.0100698
12576.18,0.010063
12644.434,0.0100566
12713.432,0.0100556
12783.187,0.0100577
12853.71,0.0100622
12925.016,0.0100649
12997.116,0.0100686
13070.025,0.0100774
13143.756,0.0100785
13218.322,0.0100834
13293.74,0.0100874
13370.021,0.010091
13447.183,0.0100919
13525.24,0.0100893
13604.208,0.0100811
13684.103,0.0100724
13764.941,0.0100554
13846.739,0.0100466
13929.515,0.0100477
14013.285,0.0100351
14098.068,0.0100284
14183.883,0.010021
14270.749,0.0100062
14358.684,0.0100057
14447.709,0.99964
14537.844,0.997402
14629.109,0.995197
14721.528,0.993045
14815.121,0.990857
14909.91,0.986484
15005.92,0.981209
15103.173,0.975298
15201.695,0.968257
15301.509,0.953595
15402.642,0.93468
15505.12,0.908985
15608.97,0.88064
15714.22,0.838725
15820.897,0.79948
15929.033,0.769726
15965.407,0.753293