File: csv_library/FTIR_PYX_07.csv
Database of Origin,University of Winnipeg Spectrophotometer Facility
Sample Description,"HOSERLab master pyroxenes, FTIR data"
Date Added,2016-12-14 03:34:49.7024

Data ID,FTIR_PYX_07
Sample ID,PYX042
Mineral Name,Orthopyroxene
Grain Size,<45 um
Viewing Geometry,"i=30, e=0"
Material Class,Inosilicate

Wavelength
2000.56,0.502902
2002.307,0.503513
2004.058,0.504071
2005.812,0.505242
2007.569,0.506128
2009.329,0.506865
2011.092,0.508134
2012.858,0.509604
2014.627,0.5106812
2016.399,0.510967
2018.174,0.51244
2019.952,0.513327
2021.733,0.514103
2023.518,0.515302
2025.305,0.516263
2027.096,0.517254
2028.89,0.518314
2030.686,0.5195683
2032.486,0.520549
2034.289,0.521821
2036.096,0.523673
2037.905,0.5249782
2039.718,0.526083
2041.533,0.52687
2043.352,0.5275412
2045.174,0.528624
2047.0,0.529992
2048.828,0.531074
2050.66,0.532308
2052.495,0.5335681
2054.333,0.534902
2056.175,0.535739
2058.019,0.537315
2059.867,0.538094
2061.718,0.539259
2063.573,0.540092
2065.431,0.541893
2067.292,0.542908
2069.156,0.544124
2071.024,0.5454312
2072.895,0.547198
2074.769,0.548857
2076.647,0.550009
2078.528,0.550851
2080.412,0.552959
2082.3,0.554864
2084.191,0.555204
2086.085,0.556788
2087.983,0.558272
2089.885,0.5596823
2091.789,0.561011
2093.697,0.562097
2095.609,0.563238
2097.524,0.564479
2099.443,0.566006
2101.364,0.567023
2103.29,0.568923
2105.219,0.570311
2107.151,0.57233
2109.087,0.573594
2111.026,0.574626
2112.969,0.576351
2114.915,0.577464
2116.865,0.578772
2118.819,0.580442
2120.776,0.581816
2122.736,0.582799
2124.7,0.584076
2126.668,0.585142
2128.64,0.587064
2130.614,0.588864
2132.593,0.590704
2134.575,0.5918792
2136.561,0.593592
2138.55,0.594526
2140.544,0.595485
2142.54,0.597186
2144.541,0.598505
2146.545,0.600334
2148.553,0.601415
2150.564,0.603197
2152.579,0.603592
2154.598,0.604656
2156.621,0.6057575
2158.647,0.60746
2160.678,0.609058
2162.712,0.610837
2164.749,0.612259
2166.791,0.613371
2168.836,0.61479
2170.885,0.616033
2172.938,0.617084
2174.995,0.617991
2177.056,0.619603
2179.12,0.6213313
2181.189,0.6216957
2183.261,0.623321
2185.337,0.625287
2187.417,0.626358
2189.501,0.628045
2191.589,0.628941
2193.68,0.62964
2195.776,0.631419
2197.876,0.633191
2199.979,0.634893
2202.087,0.635689
2204.199,0.636885
2206.314,0.638323
2208.434,0.639819
2210.557,0.640836
2212.685,0.6419774
2214.817,0.64325
2216.952,0.643741
2219.092,0.644799
2221.236,0.646276
2223.384,0.6462
2225.536,0.646971
2227.692,0.647418
2229.853,0.648856
2232.017,0.649582
2234.186,0.649924
2236.359,0.650867
2238.536,0.652085
2240.717,0.65313
2242.902,0.653907
2245.092,0.65442
2247.285,0.655288
2249.483,0.656225
2251.686,0.656487
2253.892,0.657063
2256.103,0.657963
2258.318,0.659016
2260.537,0.65962
2262.761,0.660387
2264.989,0.660241
2267.221,0.659448
2269.458,0.659746
2271.699,0.66043
2273.944,0.661199
2276.194,0.661129
2278.448,0.661267
2280.707,0.661051
2282.97,0.660357
2285.237,0.658707
2287.509,0.657354
2289.786,0.65748
2292.067,0.6581831
2294.352,0.659855
2296.642,0.660457
2298.936,0.660373
2301.235,0.6599
2303.539,0.659355
2305.847,0.657788
2308.159,0.655833
2310.476,0.654263
2312.798,0.654118
2315.124,0.656975
2317.455,0.659864
2319.791,0.661341
2322.131,0.662318
2324.476,0.664742
2326.826,0.667162
2329.18,0.668751
2331.54,0.669943
2333.903,0.6715881
2336.272,0.672914
2338.645,0.673929
2341.023,0.6749
2343.406,0.675821
2345.794,0.677468
2348.186,0.678439
2350.583,0.680315
2352.986,0.680372
2355.393,0.68116
2357.804,0.682053
2360.221,0.682418
2362.643,0.683422
2365.069,0.683447
2367.501,0.683045
2369.937,0.683152
2372.379,0.682173
2374.825,0.682288
2377.276,0.682127
2379.733,0.681903
2382.194,0.682126
2384.661,0.682855
2387.132,0.683108
2389.609,0.6832742
2392.09,0.683862
2394.577,0.684439
2397.069,0.685234
2399.566,0.686191
2402.068,0.687579
2404.575,0.6887
2407.088,0.6897707
2409.606,0.6895591
2412.128,0.689931
2414.657,0.690401
2417.19,0.690566
2419.729,0.690605
2422.272,0.689846
2424.822,0.689782
2427.376,0.690017
2429.936,0.69013
2432.501,0.689669
2435.072,0.689412
2437.648,0.689598
2440.229,0.689742
2442.816,0.690099
2445.408,0.689813
2448.006,0.690072
2450.609,0.689869
2453.217,0.689273
2455.831,0.689224
2458.451,0.689536
2461.076,0.689071
2463.707,0.689101
2466.343,0.689588
2468.985,0.689548
2471.632,0.690126
2474.285,0.690315
2476.944,0.690488
2479.608,0.6902446
2482.278,0.6902374
2484.954,0.690155
2487.636,0.689804
2490.323,0.69069
2493.016,0.689953
2495.715,0.689154
2498.419,0.6892618
2501.129,0.6895514
2503.845,0.689523
2506.567,0.689416
2509.295,0.689386
2512.029,0.689821
2514.769,0.689848
2517.514,0.689518
2520.266,0.689394
2523.023,0.690094
2525.787,0.689621
2528.556,0.689568
2531.331,0.689402
2534.113,0.689487
2536.9,0.6902224
2539.694,0.691213
2542.494,0.690375
2545.3,0.690472
2548.112,0.690756
2550.93,0.691353
2553.754,0.6906673
2556.585,0.690573
2559.421,0.6907947
2562.264,0.689952
2565.113,0.689793
2567.969,0.6910772
2570.831,0.69025
2573.699,0.690154
2576.573,0.6901
2579.454,0.690651
2582.342,0.689281
2585.235,0.688401
2588.135,0.689007
2591.042,0.6914122
2593.955,0.693838
2596.874,0.687324
2599.8,0.689966
2602.733,0.690691
2605.672,0.690074
2608.618,0.689216
2611.57,0.688889
2614.529,0.689265
2617.495,0.68844
2620.467,0.68807
2623.446,0.688645
2626.431,0.688817
2629.424,0.689012
2632.423,0.687778
2635.429,0.687946
2638.442,0.688795
2641.461,0.688016
2644.488,0.687547
2647.521,0.68662
2650.561,0.687165
2653.609,0.684636
2656.663,0.683841
2659.724,0.682645
2662.792,0.68213
2665.867,0.680523
2668.949,0.67787
2672.038,0.6717102
2675.135,0.669508
2678.238,0.660478
2681.349,0.650956
2684.467,0.637119
2687.591,0.617919
2690.724,0.597304
2693.863,0.570699
2697.01,0.530616
2700.164,0.493235
2703.325,0.450937
2706.494,0.417966
2709.67,0.398915
2712.853,0.378946
2716.044,0.361048
2719.242,0.332027
2722.448,0.340665
2725.661,0.354181
2728.882,0.34794
2732.111,0.342374
2735.347,0.351308
2738.59,0.353526
2741.841,0.3496659
2745.1,0.345048
2748.367,0.34555
2751.641,0.347178
2754.923,0.347515
2758.213,0.343792
2761.51,0.344544
2764.816,0.343497
2768.129,0.343986
2771.45,0.343475
2774.779,0.343173
2778.116,0.344494
2781.461,0.3444
2784.814,0.345071
2788.175,0.34546
2791.544,0.345973
2794.922,0.34649
2798.307,0.3477351
2801.7,0.347561
2805.102,0.346738
2808.512,0.348155
2811.93,0.3487241
2815.356,0.349109
2818.791,0.349721
2822.233,0.349541
2825.685,0.350462
2829.144,0.350097
2832.612,0.349742
2836.089,0.348673
2839.574,0.3479
2843.067,0.347153
2846.569,0.3467671
2850.08,0.346894
2853.599,0.347348
2857.127,0.346613
2860.664,0.3472
2864.209,0.347029
2867.763,0.345864
2871.325,0.345412
2874.897,0.344675
2878.477,0.3441178
2882.066,0.343883
2885.664,0.343165
2889.271,0.343197
2892.887,0.342689
2896.512,0.341672
2900.146,0.3414803
2903.789,0.341451
2907.441,0.340984
2911.103,0.340618
2914.773,0.340448
2918.453,0.340759
2922.142,0.339751
2925.84,0.339243
2929.547,0.338299
2933.264,0.338315
2936.99,0.339192
2940.726,0.339478
2944.471,0.339709
2948.225,0.340945
2951.989,0.340566
2955.763,0.3413614
2959.546,0.3412556
2963.339,0.341928
2967.141,0.342946
2970.953,0.34367
2974.775,0.345236
2978.607,0.346361
2982.448,0.347093
2986.3,0.347784
2990.161,0.348823
2994.032,0.35024
2997.913,0.351289
3001.804,0.353079
3005.705,0.353907
3009.616,0.354539
3013.538,0.356587
3017.469,0.357421
3021.411,0.358165
3025.363,0.359689
3029.325,0.361764
3033.298,0.364323
3037.281,0.364285
3041.274,0.365437
3045.278,0.366998
3049.292,0.367498
3053.317,0.368017
3057.352,0.369099
3061.398,0.3708
3065.455,0.372506
3069.522,0.372543
3073.6,0.373321
3077.689,0.375305
3081.788,0.376506
3085.899,0.377928
3090.02,0.379489
3094.153,0.380129
3098.296,0.38143
3102.45,0.383076
3106.616,0.383205
3110.792,0.384408
3114.98,0.386052
3119.179,0.387379
3123.389,0.388799
3127.611,0.390217
3131.844,0.392016
3136.088,0.39403
3140.344,0.396071
3144.611,0.397652
3148.89,0.399376
3153.18,0.401465
3157.482,0.403341
3161.796,0.404966
3166.121,0.407024
3170.458,0.408888
3174.807,0.410739
3179.168,0.413332
3183.541,0.414823
3187.926,0.4154585
3192.323,0.417698
3196.731,0.419671
3201.152,0.420728
3205.585,0.422313
3210.031,0.4240476
3214.488,0.427353
3218.958,0.42907
3223.441,0.42913
3227.936,0.430726
3232.443,0.431843
3236.963,0.434004
3241.495,0.4353227
3246.04,0.437377
3250.598,0.4390314
3255.168,0.441357
3259.751,0.443099
3264.347,0.4428744
3268.956,0.444499
3273.578,0.445532
3278.213,0.446668
3282.861,0.448571
3287.522,0.45012
3292.196,0.4516654
3296.884,0.453334
3301.585,0.453434
3306.299,0.454708
3311.026,0.455612
3315.767,0.457146
3320.522,0.458471
3325.29,0.4607971
3330.072,0.462713
3334.867,0.4624779
3339.676,0.462999
3344.499,0.4640118
3349.336,0.465179
3354.187,0.465145
3359.052,0.464307
3363.931,0.464431
3368.824,0.462952
3373.731,0.461005
3378.652,0.459769
3383.588,0.460398
3388.538,0.462162
3393.502,0.463205
3398.481,0.4633064
3403.475,0.462243
3408.483,0.4600378
3413.506,0.456847
3418.543,0.456619
3423.596,0.460034
3428.663,0.464685
3433.745,0.469582
3438.842,0.474292
3443.954,0.477652
3449.082,0.478486
3454.224,0.479686
3459.382,0.481528
3464.556,0.483196
3469.744,0.483202
3474.948,0.483069
3480.168,0.483538
3485.403,0.484312
3490.654,0.485618
3495.921,0.484539
3501.204,0.483287
3506.502,0.485131
3511.817,0.489511
3517.147,0.493966
3522.494,0.497498
3527.857,0.500019
3533.236,0.502863
3538.631,0.504372
3544.043,0.504469
3549.471,0.50552
3554.916,0.506643
3560.378,0.50736
3565.856,0.508273
3571.351,0.509488
3576.863,0.509769
3582.392,0.510342
3587.938,0.511318
3593.501,0.511729
3599.082,0.512449
3604.679,0.512049
3610.294,0.51249
3615.926,0.513723
3621.576,0.514061
3627.244,0.514604
3632.929,0.515168
3638.632,0.515706
3644.353,0.516318
3650.091,0.517552
3655.848,0.517601
3661.623,0.517493
3667.416,0.518179
3673.227,0.51849
3679.057,0.5192273
3684.905,0.519683
3690.771,0.519414
3696.656,0.519979
3702.56,0.520681
3708.483,0.520889
3714.425,0.520939
3720.385,0.521297
3726.365,0.52196
3732.364,0.522796
3738.382,0.523216
3744.419,0.523997
3750.476,0.524678
3756.553,0.524818
3762.649,0.525335
3768.764,0.525691
3774.9,0.52561
3781.056,0.52595
3787.231,0.526528
3793.427,0.526918
3799.643,0.526974
3805.879,0.527212
3812.135,0.527135
3818.412,0.5274
3824.71,0.527341
3831.029,0.527435
3837.368,0.527508
3843.728,0.528136
3850.109,0.5289435
3856.512,0.5297523
3862.935,0.530065
3869.38,0.530259
3875.846,0.53095
3882.334,0.531411
3888.844,0.531962
3895.375,0.533003
3901.929,0.533481
3908.504,0.533472
3915.101,0.533695
3921.721,0.533334
3928.363,0.533199
3935.027,0.533349
3941.714,0.533624
3948.423,0.534367
3955.156,0.534874
3961.911,0.535327
3968.689,0.536314
3975.491,0.537221
3982.315,0.538
3989.163,0.538297
3996.035,0.538781
4002.93,0.539696
4009.849,0.540154
4016.791,0.540423
4023.758,0.540734
4030.749,0.540734
4037.764,0.54125
4044.804,0.541676
4051.867,0.542658
4058.956,0.543352
4066.069,0.543849
4073.207,0.544446
4080.371,0.545531
4087.559,0.546888
4094.773,0.547567
4102.012,0.5487495
4109.276,0.550095
4116.566,0.551134
4123.882,0.55232
4131.224,0.553572
4138.592,0.554553
4145.987,0.556058
4153.407,0.557097
4160.854,0.558756
4168.328,0.559794
4175.829,0.561016
4183.356,0.56223
4190.911,0.564104
4198.493,0.568422
4206.102,0.578082
4213.739,0.591413
4221.404,0.603995
4229.096,0.613879
4236.816,0.6204527
4244.565,0.619603
4252.341,0.606767
4260.146,0.601765
4267.98,0.615664
4275.843,0.619389
4283.734,0.620153
4291.655,0.622459
4299.604,0.6215
4307.583,0.620743
4315.592,0.617459
4323.631,0.615088
4331.699,0.613648
4339.797,0.611845
4347.926,0.611783
4356.085,0.612886
4364.275,0.614109
4372.495,0.616364
4380.746,0.618432
4389.029,0.6218474
4397.342,0.625047
4405.687,0.628103
4414.064,0.631258
4422.472,0.634472
4430.913,0.637268
4439.386,0.640284
4447.891,0.642421
4456.428,0.644501
4464.998,0.646989
4473.602,0.64901
4482.238,0.650988
4490.908,0.652731
4499.611,0.654934
4508.347,0.65682
4517.118,0.65771
4525.923,0.659271
4534.762,0.66067
4543.635,0.661432
4552.543,0.662699
4561.487,0.664017
4570.465,0.664361
4579.478,0.665304
4588.527,0.666574
4597.612,0.667123
4606.732,0.668609
4615.889,0.668307
4625.082,0.668103
4634.312,0.668181
4643.578,0.669084
4652.882,0.670128
4662.223,0.671247
4671.601,0.673688
4681.017,0.677185
4690.471,0.677354
4699.962,0.679996
4709.493,0.683432
4719.062,0.68541
4728.669,0.687579
4738.316,0.689832
4748.002,0.690729
4757.728,0.692707
4767.494,0.694648
4777.299,0.696387
4787.145,0.697761
4797.032,0.698837
4806.959,0.699837
4816.927,0.70207
4826.937,0.703426
4836.988,0.7039172
4847.081,0.706321
4857.216,0.709995
4867.393,0.71216
4877.613,0.713681
4887.876,0.714988
4898.182,0.719602
4908.532,0.722954
4918.925,0.723958
4929.362,0.727204
4939.844,0.730317
4950.37,0.732898
4960.941,0.734947
4971.556,0.7361736
4982.218,0.738221
4992.925,0.739369
5003.678,0.741416
5014.477,0.744372
5025.323,0.745842
5036.216,0.7453
5047.156,0.745971
5058.143,0.746671
5069.179,0.747486
5080.262,0.750091
5091.394,0.750351
5102.574,0.750656
5113.804,0.7517935
5125.083,0.75233
5136.412,0.755443
5147.791,0.760307
5159.22,0.759782
5170.7,0.762445
5182.231,0.766369
5193.814,0.772352
5205.448,0.779198
5217.134,0.781928
5228.873,0.782239
5240.665,0.786566
5252.51,0.788078
5264.408,0.7912363
5276.36,0.79597
5288.367,0.801218
5300.428,0.802264
5312.544,0.80343
5324.715,0.806108
5336.942,0.810076
5349.226,0.819403
5361.566,0.815481
5373.962,0.814813
5386.417,0.815789
5398.928,0.817318
5411.498,0.823944
5424.127,0.829787
5436.814,0.823975
5449.561,0.82728
5462.368,0.837815
5475.234,0.841094
5488.162,0.840398
5501.15,0.839534
5514.2,0.853335
5527.312,0.866008
5540.486,0.864321
5553.723,0.784636
5567.023,0.712322
5580.387,0.735018
5593.815,0.791267
5607.307,0.804703
5620.865,0.817465
5634.489,0.824869
5648.178,0.824246
5661.934,0.823109
5675.757,0.831875
5689.647,0.833227
5703.606,0.83678
5717.633,0.842276
5731.729,0.842248
5745.894,0.847164
5760.13,0.855248
5774.436,0.853615
5788.813,0.8460388
5803.262,0.850354
5817.782,0.865009
5832.376,0.859907
5847.043,0.856727
5861.783,0.865952
5876.598,0.87569
5891.488,0.874715
5906.454,0.865753
5921.495,0.870737
5936.613,0.880039
5951.809,0.872516
5967.082,0.874633
5982.433,0.874712
5997.864,0.872445
6013.374,0.873165
6028.964,0.874536
6044.636,0.887084
6060.389,0.883684
6076.224,0.883202
6092.141,0.880914
6108.143,0.890409
6124.228,0.88468
6140.398,0.887512
6156.654,0.891087
6172.996,0.892932
6189.424,0.894088
6205.94,0.893601
6222.544,0.895058
6239.237,0.896139
6256.02,0.897476
6272.893,0.900681
6289.858,0.900166
6306.914,0.901999
6324.062,0.906514
6341.304,0.911017
6358.64,0.912707
6376.071,0.9136
6393.598,0.915601
6411.221,0.925253
6428.941,0.919451
6446.759,0.918449
6464.676,0.921934
6482.693,0.928561
6500.81,0.925977
6519.029,0.9271417
6537.35,0.927281
6555.774,0.930839
6574.302,0.93335
6592.934,0.933389
6611.673,0.935844
6630.518,0.940309
6649.47,0.934442
6668.532,0.9372251
6687.702,0.9372551
6706.983,0.941373
6726.375,0.93896
6745.879,0.938889
6765.497,0.942958
6785.229,0.944191
6805.076,0.942533
6825.039,0.944451
6845.12,0.9471099
6865.319,0.94785
6885.637,0.946338
6906.076,0.947366
6926.636,0.947166
6947.319,0.949493
6968.125,0.950369
6989.057,0.951753
7010.114,0.952865
7031.298,0.955476
7052.611,0.956102
7074.052,0.956145
7095.625,0.957617
7117.329,0.959362
7139.166,0.961024
7161.137,0.961672
7183.244,0.961993
7205.487,0.963478
7227.869,0.96371
7250.39,0.965315
7273.051,0.9665919
7295.854,0.967299
7318.8,0.96885
7341.891,0.9697663
7365.128,0.970239
7388.512,0.972044
7412.045,0.973588
7435.728,0.97472
7459.562,0.975905
7483.55,0.976373
7507.692,0.977052
7531.99,0.977689
7556.446,0.978662
7581.061,0.979311
7605.837,0.979738
7630.774,0.979764
7655.876,0.980034
7681.143,0.980955
7706.577,0.981754
7732.18,0.981965
7757.953,0.982826
7783.899,0.983974
7810.018,0.98483
7836.313,0.986151
7862.786,0.987483
7889.437,0.98895
7916.27,0.990079
7943.285,0.991169
7970.485,0.992387
7997.872,0.993654
8025.448,0.994559
8053.214,0.995464
8081.173,0.996213
8109.326,0.996881
8137.676,0.997877
8166.224,0.998566
8194.973,0.999751
8223.925,0.0100056
8253.082,0.0100128
8282.446,0.0100243
8312.02,0.0100349
8341.805,0.0100471
8371.804,0.0100548
8402.02,0.0100644
8432.454,0.0100734
8463.109,0.0100802
8493.988,0.0100874
8525.092,0.01009278
8556.425,0.010098
8587.989,0.0101029
8619.786,0.0101073
8651.819,0.0101125
8684.091,0.0101199
8716.604,0.0101275
8749.361,0.0101367
8782.365,0.01014373
8815.619,0.0101533
8849.125,0.0101649
8882.887,0.0101745
8916.907,0.0101838
8951.188,0.0101916
8985.733,0.0101952
9020.546,0.0101953
9055.629,0.0101911
9090.986,0.0101899
9126.62,0.0101857
9162.534,0.0101767
9198.731,0.0101675
9235.215,0.0101612
9271.99,0.010159
9309.058,0.0101567
9346.423,0.0101552
9384.089,0.0101556
9422.06,0.0101619
9460.339,0.0101681
9498.929,0.0101761
9537.836,0.0101825
9577.062,0.0101893
9616.612,0.0101938
9656.49,0.010196
9696.699,0.0102019
9737.244,0.0102036
9778.129,0.0102019
9819.359,0.0101983
9860.938,0.0101984
9902.869,0.0101987
9945.159,0.0101985
9987.811,0.0101997
10030.83,0.0102025
10074.221,0.0102039
10117.988,0.0102085
10162.137,0.0102137
10206.672,0.0102213
10251.6,0.0102301
10296.924,0.0102373
10342.65,0.0102409
10388.784,0.0102441
10435.331,0.0102461
10482.296,0.0102453
10529.686,0.0102443
10577.505,0.010248
10625.761,0.010249
10674.458,0.0102444
10723.604,0.010242
10773.203,0.0102447
10823.264,0.0102431
10873.791,0.0102425
10924.791,0.0102461
10976.272,0.0102484
11028.24,0.0102515
11080.702,0.0102538
11133.665,0.0102528
11187.137,0.0102467
11241.124,0.01024
11295.634,0.0102342
11350.675,0.01023
11406.254,0.0102248
11462.38,0.0102185
11519.06,0.0102118
11576.304,0.0102064
11634.118,0.0102016
11692.513,0.0101974
11751.496,0.0101941
11811.077,0.0101948
11871.265,0.0101965
11932.068,0.0101992
11993.497,0.0101982
12055.562,0.0102011
12118.271,0.0102003
12181.636,0.0101944
12245.667,0.0101936
12310.373,0.0101889
12375.767,0.010182
12441.859,0.0101768
12508.659,0.0101759
12576.18,0.0101734
12644.434,0.0101689
12713.432,0.0101675
12783.187,0.0101668
12853.71,0.0101698
12925.016,0.0101711
12997.116,0.010176
13070.025,0.0101861
13143.756,0.010191
13218.322,0.0101973
13293.74,0.0102026
13370.021,0.0102096
13447.183,0.0102114
13525.24,0.0102056
13604.208,0.010202
13684.103,0.0101922
13764.941,0.0101769
13846.739,0.0101653
13929.515,0.0101648
14013.285,0.0101586
14098.068,0.0101486
14183.883,0.0101376
14270.749,0.0101241
14358.684,0.0101213
14447.709,0.0101082
14537.844,0.0100909
14629.109,0.0100811
14721.528,0.0100628
14815.121,0.0100378
14909.91,0.99531
15005.92,0.992989
15103.173,0.99069
15201.695,0.9808144
15301.509,0.96519
15402.642,0.944937
15505.12,0.91593
15608.97,0.881614
15714.22,0.832186
15820.897,0.787504
15929.033,0.755917
15965.407,0.738928