File: csv_library/FTIR_MET_4_3.csv
Database of Origin,University of Winnipeg Spectrophotometer Facility
Sample Description,16. Meteorites. 16.1 Iron meteorites and components 16.1.2. UND samples.  (a) PSF D&P spectra
Other Information,only good to 4.3 um illum. spot larger than viewed spot (8mm)
Date Added,2018-07-23 23:32:11.5778

Data ID,FTIR_MET_4_3
Sample ID,Tucson
Mineral Name,Tucson
Grain Size,Slab
Viewing Geometry,i=30/ e=0
Resolution,6 cm-1
Composition,Cloudy Spot Sanded 220 Grit Paper
Material Class,Iron Meteorite

Wavelength
2000.56,0.416726
2002.307,0.416258
2004.058,0.416423
2005.812,0.416037
2007.569,0.415455
2009.329,0.414904
2011.092,0.414981
2012.858,0.414716
2014.627,0.414602
2016.399,0.414503
2018.174,0.414176
2019.952,0.4135564
2021.733,0.41327
2023.518,0.413112
2025.305,0.413258
2027.096,0.412949
2028.89,0.412621
2030.686,0.412687
2032.486,0.412286
2034.289,0.412354
2036.096,0.411968
2037.905,0.411914
2039.718,0.411942
2041.533,0.411894
2043.352,0.411962
2045.174,0.411612
2047.0,0.411246
2048.828,0.411219
2050.66,0.411146
2052.495,0.411325
2054.333,0.411102
2056.175,0.410774
2058.019,0.41051
2059.867,0.41045
2061.718,0.410591
2063.573,0.410251
2065.431,0.409761
2067.292,0.4098085
2069.156,0.409517
2071.024,0.409497
2072.895,0.409112
2074.769,0.408611
2076.647,0.408856
2078.528,0.4090357
2080.412,0.4090081
2082.3,0.409034
2084.191,0.408717
2086.085,0.408684
2087.983,0.408447
2089.885,0.408468
2091.789,0.408348
2093.697,0.408291
2095.609,0.408548
2097.524,0.408031
2099.443,0.407866
2101.364,0.408079
2103.29,0.4073655
2105.219,0.40706
2107.151,0.406399
2109.087,0.406451
2111.026,0.406525
2112.969,0.406047
2114.915,0.406086
2116.865,0.405899
2118.819,0.406037
2120.776,0.40537
2122.736,0.405727
2124.7,0.405597
2126.668,0.405641
2128.64,0.405671
2130.614,0.4053202
2132.593,0.40528
2134.575,0.404858
2136.561,0.404775
2138.55,0.404324
2140.544,0.4042859
2142.54,0.404592
2144.541,0.403961
2146.545,0.403726
2148.553,0.403943
2150.564,0.403716
2152.579,0.403491
2154.598,0.4035239
2156.621,0.4033084
2158.647,0.403173
2160.678,0.402871
2162.712,0.403159
2164.749,0.403232
2166.791,0.403584
2168.836,0.403806
2170.885,0.403539
2172.938,0.403383
2174.995,0.403268
2177.056,0.402772
2179.12,0.402717
2181.189,0.4031461
2183.261,0.403057
2185.337,0.402778
2187.417,0.4026494
2189.501,0.4026237
2191.589,0.403268
2193.68,0.403095
2195.776,0.40293
2197.876,0.402878
2199.979,0.402906
2202.087,0.402895
2204.199,0.402878
2206.314,0.403063
2208.434,0.402963
2210.557,0.402711
2212.685,0.402888
2214.817,0.4028314
2216.952,0.402742
2219.092,0.402249
2221.236,0.4018344
2223.384,0.40147
2225.536,0.401387
2227.692,0.401063
2229.853,0.400805
2232.017,0.400337
2234.186,0.400033
2236.359,0.39991
2238.536,0.400026
2240.717,0.400072
2242.902,0.399966
2245.092,0.399887
2247.285,0.399732
2249.483,0.399549
2251.686,0.3991309
2253.892,0.398814
2256.103,0.398756
2258.318,0.398589
2260.537,0.398541
2262.761,0.3981755
2264.989,0.397592
2267.221,0.397566
2269.458,0.397831
2271.699,0.397528
2273.944,0.397394
2276.194,0.397017
2278.448,0.39713
2280.707,0.397115
2282.97,0.39681
2285.237,0.396574
2287.509,0.396547
2289.786,0.396267
2292.067,0.396422
2294.352,0.396306
2296.642,0.3959906
2298.936,0.39607
2301.235,0.3959729
2303.539,0.395687
2305.847,0.395598
2308.159,0.3953058
2310.476,0.395183
2312.798,0.3952882
2315.124,0.394984
2317.455,0.394682
2319.791,0.394565
2322.131,0.394771
2324.476,0.39426
2326.826,0.3944466
2329.18,0.39429
2331.54,0.394283
2333.903,0.394319
2336.272,0.39448
2338.645,0.394317
2341.023,0.394122
2343.406,0.393971
2345.794,0.394043
2348.186,0.394119
2350.583,0.393812
2352.986,0.393761
2355.393,0.393732
2357.804,0.393516
2360.221,0.392969
2362.643,0.393114
2365.069,0.392959
2367.501,0.392767
2369.937,0.393073
2372.379,0.393059
2374.825,0.392761
2377.276,0.392653
2379.733,0.392566
2382.194,0.392744
2384.661,0.392522
2387.132,0.392513
2389.609,0.392112
2392.09,0.392405
2394.577,0.392496
2397.069,0.392399
2399.566,0.392133
2402.068,0.391918
2404.575,0.391985
2407.088,0.392094
2409.606,0.391829
2412.128,0.391743
2414.657,0.391892
2417.19,0.3915
2419.729,0.391454
2422.272,0.391606
2424.822,0.391396
2427.376,0.391246
2429.936,0.391201
2432.501,0.391201
2435.072,0.391457
2437.648,0.391408
2440.229,0.39141
2442.816,0.3914797
2445.408,0.391754
2448.006,0.39133
2450.609,0.391457
2453.217,0.391685
2455.831,0.391702
2458.451,0.391064
2461.076,0.390937
2463.707,0.391202
2466.343,0.3917019
2468.985,0.391316
2471.632,0.392072
2474.285,0.391497
2476.944,0.39135
2479.608,0.39187
2482.278,0.391822
2484.954,0.391963
2487.636,0.392031
2490.323,0.392055
2493.016,0.392358
2495.715,0.3923501
2498.419,0.392135
2501.129,0.39204
2503.845,0.392445
2506.567,0.392274
2509.295,0.392005
2512.029,0.392061
2514.769,0.392481
2517.514,0.392631
2520.266,0.392661
2523.023,0.393676
2525.787,0.393534
2528.556,0.393734
2531.331,0.395291
2534.113,0.395397
2536.9,0.394828
2539.694,0.394374
2542.494,0.396951
2545.3,0.395305
2548.112,0.396001
2550.93,0.3978014
2553.754,0.395487
2556.585,0.393472
2559.421,0.401055
2562.264,0.408842
2565.113,0.399311
2567.969,0.399089
2570.831,0.401128
2573.699,0.403487
2576.573,0.401367
2579.454,0.399118
2582.342,0.406942
2585.235,0.406521
2588.135,0.403936
2591.042,0.401201
2593.955,0.426053
2596.874,0.407036
2599.8,0.398813
2602.733,0.4086023
2605.672,0.4137067
2608.618,0.404837
2611.57,0.399938
2614.529,0.405296
2617.495,0.413458
2620.467,0.407213
2623.446,0.398728
2626.431,0.406098
2629.424,0.412015
2632.423,0.407331
2635.429,0.399165
2638.442,0.397131
2641.461,0.399184
2644.488,0.401883
2647.521,0.399984
2650.561,0.401157
2653.609,0.405798
2656.663,0.40295
2659.724,0.406324
2662.792,0.411115
2665.867,0.429578
2668.949,0.430783
2672.038,0.4201919
2675.135,0.4191945
2678.238,0.425892
2681.349,0.410969
2684.467,0.4144166
2687.591,0.414149
2690.724,0.415389
2693.863,0.43541
2697.01,0.433175
2700.164,0.438855
2703.325,0.448038
2706.494,0.4580106
2709.67,0.496324
2712.853,0.48959
2716.044,0.477812
2719.242,0.517443
2722.448,0.527027
2725.661,0.495701
2728.882,0.4581857
2732.111,0.4511726
2735.347,0.45161
2738.59,0.462765
2741.841,0.457228
2745.1,0.423168
2748.367,0.417529
2751.641,0.417737
2754.923,0.433923
2758.213,0.418717
2761.51,0.416131
2764.816,0.418755
2768.129,0.415429
2771.45,0.414171
2774.779,0.405602
2778.116,0.40559
2781.461,0.406748
2784.814,0.407277
2788.175,0.411708
2791.544,0.402747
2794.922,0.401112
2798.307,0.400725
2801.7,0.407449
2805.102,0.4091801
2808.512,0.401296
2811.93,0.399781
2815.356,0.400394
2818.791,0.401618
2822.233,0.400785
2825.685,0.397948
2829.144,0.397887
2832.612,0.398284
2836.089,0.39952
2839.574,0.397936
2843.067,0.396006
2846.569,0.395956
2850.08,0.396353
2853.599,0.396286
2857.127,0.395148
2860.664,0.394764
2864.209,0.393756
2867.763,0.393142
2871.325,0.393476
2874.897,0.392686
2878.477,0.392611
2882.066,0.392144
2885.664,0.391505
2889.271,0.3919051
2892.887,0.390999
2896.512,0.390225
2900.146,0.391216
2903.789,0.390633
2907.441,0.389616
2911.103,0.38906
2914.773,0.388935
2918.453,0.3887
2922.142,0.38824
2925.84,0.387598
2929.547,0.386226
2933.264,0.385625
2936.99,0.385816
2940.726,0.385433
2944.471,0.385066
2948.225,0.385681
2951.989,0.384305
2955.763,0.384411
2959.546,0.3828451
2963.339,0.381997
2967.141,0.381829
2970.953,0.381777
2974.775,0.382205
2978.607,0.381454
2982.448,0.380227
2986.3,0.380041
2990.161,0.380057
2994.032,0.379857
2997.913,0.379375
3001.804,0.379468
3005.705,0.378781
3009.616,0.378219
3013.538,0.378201
3017.469,0.378057
3021.411,0.377759
3025.363,0.377433
3029.325,0.378073
3033.298,0.378919
3037.281,0.377481
3041.274,0.377454
3045.278,0.377514
3049.292,0.376934
3053.317,0.376559
3057.352,0.376632
3061.398,0.3764661
3065.455,0.377122
3069.522,0.376423
3073.6,0.376066
3077.689,0.375909
3081.788,0.37614
3085.899,0.375893
3090.02,0.376002
3094.153,0.375533
3098.296,0.375837
3102.45,0.375791
3106.616,0.375054
3110.792,0.37459
3114.98,0.374229
3119.179,0.373979
3123.389,0.37388
3127.611,0.3738441
3131.844,0.373123
3136.088,0.372643
3140.344,0.372338
3144.611,0.37221
3148.89,0.372307
3153.18,0.371894
3157.482,0.371713
3161.796,0.371629
3166.121,0.371538
3170.458,0.371315
3174.807,0.370841
3179.168,0.371658
3183.541,0.371441
3187.926,0.370288
3192.323,0.370787
3196.731,0.37057
3201.152,0.370087
3205.585,0.370009
3210.031,0.36989
3214.488,0.371331
3218.958,0.3713
3223.441,0.369585
3227.936,0.369466
3232.443,0.36874
3236.963,0.368443
3241.495,0.36799
3246.04,0.368493
3250.598,0.368734
3255.168,0.369211
3259.751,0.3688645
3264.347,0.367287
3268.956,0.367607
3273.578,0.367136
3278.213,0.366321
3282.861,0.366425
3287.522,0.366593
3292.196,0.366542
3296.884,0.36734
3301.585,0.366207
3306.299,0.366064
3311.026,0.365451
3315.767,0.365462
3320.522,0.365378
3325.29,0.366052
3330.072,0.3666
3334.867,0.3649775
3339.676,0.364243
3344.499,0.36446
3349.336,0.3649969
3354.187,0.364584
3359.052,0.3635392
3363.931,0.364219
3368.824,0.364393
3373.731,0.364001
3378.652,0.363125
3383.588,0.362642
3388.538,0.362363
3393.502,0.362291
3398.481,0.362748
3403.475,0.363063
3408.483,0.363006
3413.506,0.361746
3418.543,0.361542
3423.596,0.362368
3428.663,0.361949
3433.745,0.361934
3438.842,0.36351
3443.954,0.3644603
3449.082,0.362808
3454.224,0.362455
3459.382,0.362617
3464.556,0.363248
3469.744,0.362876
3474.948,0.362778
3480.168,0.362883
3485.403,0.363046
3490.654,0.364332
3495.921,0.364032
3501.204,0.36366
3506.502,0.364068
3511.817,0.364286
3517.147,0.364531
3522.494,0.36524
3527.857,0.365424
3533.236,0.367012
3538.631,0.36702
3544.043,0.366578
3549.471,0.366675
3554.916,0.367
3560.378,0.367432
3565.856,0.367828
3571.351,0.368502
3576.863,0.36869
3582.392,0.369111
3587.938,0.369825
3593.501,0.370351
3599.082,0.3707763
3604.679,0.3700756
3610.294,0.370331
3615.926,0.371324
3621.576,0.371375
3627.244,0.371565
3632.929,0.371962
3638.632,0.372579
3644.353,0.373156
3650.091,0.374126
3655.848,0.374406
3661.623,0.3748442
3667.416,0.3753202
3673.227,0.3759846
3679.057,0.377362
3684.905,0.377944
3690.771,0.378058
3696.656,0.379021
3702.56,0.379872
3708.483,0.3804452
3714.425,0.381103
3720.385,0.381777
3726.365,0.382632
3732.364,0.383318
3738.382,0.384394
3744.419,0.385659
3750.476,0.386288
3756.553,0.386737
3762.649,0.387472
3768.764,0.388377
3774.9,0.38889
3781.056,0.3894799
3787.231,0.390466
3793.427,0.391325
3799.643,0.391937
3805.879,0.392908
3812.135,0.393594
3818.412,0.394309
3824.71,0.395119
3831.029,0.395649
3837.368,0.396172
3843.728,0.396757
3850.109,0.397134
3856.512,0.39782
3862.935,0.39859
3869.38,0.39923
3875.846,0.400025
3882.334,0.400861
3888.844,0.401569
3895.375,0.402377
3901.929,0.403094
3908.504,0.403854
3915.101,0.404603
3921.721,0.405608
3928.363,0.406334
3935.027,0.407387
3941.714,0.408502
3948.423,0.409768
3955.156,0.411007
3961.911,0.412085
3968.689,0.41349
3975.491,0.415017
3982.315,0.416278
3989.163,0.417319
3996.035,0.418402
4002.93,0.419421
4009.849,0.420538
4016.791,0.4219482
4023.758,0.42311
4030.749,0.424578
4037.764,0.426285
4044.804,0.428006
4051.867,0.429635
4058.956,0.4315501
4066.069,0.433303
4073.207,0.435312
4080.371,0.437368
4087.559,0.439281
4094.773,0.4417072
4102.012,0.4441713
4109.276,0.446478
4116.566,0.448968
4123.882,0.451479
4131.224,0.454044
4138.592,0.4569646
4145.987,0.459853
4153.407,0.462937
4160.854,0.465865
4168.328,0.469383
4175.829,0.472048
4183.356,0.47475
4190.911,0.478805
4198.493,0.486889
4206.102,0.504631
4213.739,0.532725
4221.404,0.565205
4229.096,0.593374
4236.816,0.608814
4244.565,0.601974
4252.341,0.567751
4260.146,0.55291
4267.98,0.58322
4275.843,0.595791
4283.734,0.597443
4291.655,0.598446
4299.604,0.593866
4307.583,0.589509
4315.592,0.580752
4323.631,0.574384
4331.699,0.570016
4339.797,0.5673097
4347.926,0.567433
4356.085,0.569418
4364.275,0.5723456
4372.495,0.576067
4380.746,0.580088
4389.029,0.585339
4397.342,0.590977
4405.687,0.596336
4414.064,0.601325
4422.472,0.60569
4430.913,0.6101804
4439.386,0.614305
4447.891,0.61768
4456.428,0.62058
4464.998,0.622455
4473.602,0.624186
4482.238,0.62546
4490.908,0.6267
4499.611,0.628021
4508.347,0.629256
4517.118,0.630947
4525.923,0.6323204
4534.762,0.634074
4543.635,0.636334
4552.543,0.63834
4561.487,0.640151
4570.465,0.642274
4579.478,0.644754
4588.527,0.647272
4597.612,0.649343
4606.732,0.651965
4615.889,0.65521
4625.082,0.657665
4634.312,0.660447
4643.578,0.6633486
4652.882,0.667112
4662.223,0.67032
4671.601,0.673763
4681.017,0.677337
4690.471,0.680887
4699.962,0.684585
4709.493,0.687972
4719.062,0.691227
4728.669,0.694653
4738.316,0.697465
4748.002,0.700756
4757.728,0.704062
4767.494,0.706866
4777.299,0.70945
4787.145,0.712467
4797.032,0.714314
4806.959,0.715968
4816.927,0.7177249
4826.937,0.719581
4836.988,0.721602
4847.081,0.723085
4857.216,0.723903
4867.393,0.7253772
4877.613,0.727031
4887.876,0.7285817
4898.182,0.730317
4908.532,0.730867
4918.925,0.732679
4929.362,0.73415
4939.844,0.735748
4950.37,0.7381829
4960.941,0.7401923
4971.556,0.739657
4982.218,0.741255
4992.925,0.742387
5003.678,0.743748
5014.477,0.747674
5025.323,0.749876
5036.216,0.747776
5047.156,0.7485145
5058.143,0.750037
5069.179,0.751337
5080.262,0.755266
5091.394,0.755739
5102.574,0.755878
5113.804,0.7574883
5125.083,0.758533
5136.412,0.762132
5147.791,0.768008
5159.22,0.763694
5170.7,0.764324
5182.231,0.765464
5193.814,0.770111
5205.448,0.776307
5217.134,0.776605
5228.873,0.773285
5240.665,0.776153
5252.51,0.77506
5264.408,0.776771
5276.36,0.780418
5288.367,0.785555
5300.428,0.784464
5312.544,0.783104
5324.715,0.784539
5336.942,0.788947
5349.226,0.804355
5361.566,0.796041
5373.962,0.793548
5386.417,0.795883
5398.928,0.800094
5411.498,0.815983
5424.127,0.833936
5436.814,0.831233
5449.561,0.853087
5462.368,0.903721
5475.234,0.963674
5488.162,0.0104178
5501.15,0.0119534
5514.2,0.0156196
5527.312,0.0210036
5540.486,0.011497
5553.723,0.404813
5567.023,0.240714
5580.387,0.280642
5593.815,0.339419
5607.307,0.390167
5620.865,0.430159
5634.489,0.457132
5648.178,0.480485
5661.934,0.502867
5675.757,0.519594
5689.647,0.533835
5703.606,0.546249
5717.633,0.558913
5731.729,0.57114
5745.894,0.579702
5760.13,0.586823
5774.436,0.596302
5788.813,0.604416
5803.262,0.6113
5817.782,0.618683
5832.376,0.625087
5847.043,0.631301
5861.783,0.639338
5876.598,0.644906
5891.488,0.647418
5906.454,0.651841
5921.495,0.658777
5936.613,0.663627
5951.809,0.666953
5967.082,0.671747
5982.433,0.676077
5997.864,0.676509
6013.374,0.678915
6028.964,0.68134
6044.636,0.683651
6060.389,0.687062
6076.224,0.68895
6092.141,0.688907
6108.143,0.694347
6124.228,0.693827
6140.398,0.698656
6156.654,0.701629
6172.996,0.703532
6189.424,0.706514
6205.94,0.710916
6222.544,0.713949
6239.237,0.7162919
6256.02,0.719311
6272.893,0.722664
6289.858,0.724798
6306.914,0.727741
6324.062,0.732122
6341.304,0.735913
6358.64,0.739251
6376.071,0.742518
6393.598,0.745932
6411.221,0.753675
6428.941,0.751549
6446.759,0.7528249
6464.676,0.758828
6482.693,0.766956
6500.81,0.764056
6519.029,0.767858
6537.35,0.770603
6555.774,0.777609
6574.302,0.781087
6592.934,0.781927
6611.673,0.785532
6630.518,0.791715
6649.47,0.784771
6668.532,0.789677
6687.702,0.78917
6706.983,0.795543
6726.375,0.792089
6745.879,0.792107
6765.497,0.798692
6785.229,0.802541
6805.076,0.7979827
6825.039,0.800218
6845.12,0.806766
6865.319,0.807846
6885.637,0.803631
6906.076,0.805665
6926.636,0.804855
6947.319,0.811332
6968.125,0.812576
6989.057,0.813533
7010.114,0.815332
7031.298,0.821643
7052.611,0.821436
7074.052,0.818935
7095.625,0.821497
7117.329,0.824205
7139.166,0.828861
7161.137,0.83172
7183.244,0.830857
7205.487,0.833913
7227.869,0.833486
7250.39,0.8373074
7273.051,0.840637
7295.854,0.839945
7318.8,0.843848
7341.891,0.845421
7365.128,0.844434
7388.512,0.845648
7412.045,0.846804
7435.728,0.8495279
7459.562,0.853843
7483.55,0.851952
7507.692,0.852559
7531.99,0.853868
7556.446,0.855933
7581.061,0.857798
7605.837,0.858577
7630.774,0.859277
7655.876,0.860129
7681.143,0.861075
7706.577,0.862261
7732.18,0.863384
7757.953,0.864683
7783.899,0.865412
7810.018,0.866559
7836.313,0.867806
7862.786,0.869165
7889.437,0.870159
7916.27,0.8716176
7943.285,0.872366
7970.485,0.873544
7997.872,0.874915
8025.448,0.876195
8053.214,0.877344
8081.173,0.878508
8109.326,0.879529
8137.676,0.880567
8166.224,0.881462
8194.973,0.882246
8223.925,0.883017
8253.082,0.883534
8282.446,0.884083
8312.02,0.884943
8341.805,0.885902
8371.804,0.886601
8402.02,0.887591
8432.454,0.888676
8463.109,0.889064
8493.988,0.88972
8525.092,0.89035
8556.425,0.891366
8587.989,0.892013
8619.786,0.892519
8651.819,0.893627
8684.091,0.894318
8716.604,0.895059
8749.361,0.895638
8782.365,0.896227
8815.619,0.897067
8849.125,0.897885
8882.887,0.8988137
8916.907,0.899469
8951.188,0.900244
8985.733,0.900764
9020.546,0.901343
9055.629,0.901763
9090.986,0.90209
9126.62,0.902401
9162.534,0.902875
9198.731,0.902906
9235.215,0.903178
9271.99,0.90387
9309.058,0.904154
9346.423,0.90465
9384.089,0.90535
9422.06,0.9059998
9460.339,0.906624
9498.929,0.907433
9537.836,0.908043
9577.062,0.908476
9616.612,0.909017
9656.49,0.909437
9696.699,0.909977
9737.244,0.910384
9778.129,0.910773
9819.359,0.910857
9860.938,0.911181
9902.869,0.911375
9945.159,0.9115348
9987.811,0.911642
10030.83,0.911563
10074.221,0.911576
10117.988,0.911682
10162.137,0.911585
10206.672,0.911673
10251.6,0.912
10296.924,0.9120274
10342.65,0.912176
10388.784,0.912422
10435.331,0.912955
10482.296,0.913203
10529.686,0.913225
10577.505,0.913453
10625.761,0.913729
10674.458,0.913975
10723.604,0.914268
10773.203,0.914263
10823.264,0.914508
10873.791,0.914876
10924.791,0.914993
10976.272,0.915163
11028.24,0.9150929
11080.702,0.915015
11133.665,0.915429
11187.137,0.915837
11241.124,0.916279
11295.634,0.916922
11350.675,0.917549
11406.254,0.9182667
11462.38,0.9187587
11519.06,0.91948
11576.304,0.9196081
11634.118,0.919787
11692.513,0.920176
11751.496,0.920577
11811.077,0.920765
11871.265,0.921049
11932.068,0.921167
11993.497,0.921085
12055.562,0.9206671
12118.271,0.920147
12181.636,0.920395
12245.667,0.920674
12310.373,0.920827
12375.767,0.9204825
12441.859,0.9205685
12508.659,0.920819
12576.18,0.920459
12644.434,0.920129
12713.432,0.919563
12783.187,0.919039
12853.71,0.918374
12925.016,0.917079
12997.116,0.915945
13070.025,0.915207
13143.756,0.914041
13218.322,0.912831
13293.74,0.911462
13370.021,0.910206
13447.183,0.9090398
13525.24,0.908072
13604.208,0.906524
13684.103,0.905201
13764.941,0.902969
13846.739,0.900902
13929.515,0.898447
14013.285,0.8950209
14098.068,0.8912296
14183.883,0.88718
14270.749,0.881913
14358.684,0.875027
14447.709,0.866455
14537.844,0.856698
14629.109,0.844483
14721.528,0.827943
14815.121,0.8092495
14909.91,0.784338
15005.92,0.754121
15103.173,0.719538
15201.695,0.669305
15301.509,0.605911
15402.642,0.53451
15505.12,0.462463
15608.97,0.393268
15714.22,0.330188
15820.897,0.281196
15929.033,0.241816
15965.407,0.230906