File: csv_library/FTIR_CLAY_05.csv
Database of Origin,University of Winnipeg Spectrophotometer Facility
Sample Description,See Master Clays in HOSERLab database
Date Added,2016-12-11 20:56:55.1731

Data ID,FTIR_CLAY_05
Sample ID,GLA103
Mineral Name,Glauconite
Grain Size,<45 m
Viewing Geometry,35/0
Resolution,11-72 nm
Material Class,Phyllosilicate

Wavelength
2001.142,0.411112
2003.474,0.412283
2005.812,0.413425
2008.155,0.414768
2010.504,0.416491
2012.858,0.417798
2015.217,0.418938
2017.582,0.420262
2019.952,0.421756
2022.328,0.422644
2024.709,0.423784
2027.096,0.425027
2029.488,0.426276
2031.886,0.4272126
2034.289,0.428741
2036.698,0.4301823
2039.113,0.430987
2041.533,0.431846
2043.959,0.432802
2046.391,0.433942
2048.828,0.4343508
2051.271,0.435056
2053.72,0.435799
2056.175,0.436498
2058.635,0.4377008
2061.101,0.438496
2063.573,0.4386359
2066.051,0.439332
2068.534,0.439878
2071.024,0.440902
2073.519,0.441254
2076.02,0.442355
2078.528,0.443079
2081.041,0.443459
2083.56,0.444457
2086.085,0.445756
2088.617,0.446126
2091.154,0.446632
2093.697,0.446458
2096.247,0.447263
2098.803,0.448356
2101.364,0.448298
2103.932,0.449373
2106.506,0.450241
2109.087,0.450109
2111.673,0.451219
2114.266,0.452177
2116.865,0.452686
2119.471,0.453126
2122.082,0.45318
2124.7,0.453753
2127.325,0.452814
2129.956,0.452602
2132.593,0.453619
2135.237,0.453723
2137.887,0.453649
2140.544,0.454039
2143.207,0.454482
2145.876,0.453917
2148.553,0.4546
2151.235,0.454836
2153.925,0.454296
2156.621,0.453746
2159.324,0.452569
2162.033,0.452646
2164.749,0.453078
2167.472,0.452968
2170.202,0.452641
2172.938,0.4519746
2175.682,0.451734
2178.432,0.450944
2181.189,0.450095
2183.952,0.449168
2186.723,0.448021
2189.501,0.44656
2192.285,0.445344
2195.077,0.443678
2197.876,0.44273
2200.682,0.441384
2203.494,0.439743
2206.314,0.437929
2209.141,0.437794
2211.975,0.438581
2214.817,0.437513
2217.665,0.435947
2220.521,0.436004
2223.384,0.434556
2226.254,0.432048
2229.132,0.429392
2232.017,0.426544
2234.91,0.423572
2237.809,0.420605
2240.717,0.4176376
2243.631,0.41553
2246.554,0.413739
2249.483,0.411785
2252.421,0.410026
2255.365,0.409471
2258.318,0.41103
2261.278,0.411151
2264.246,0.4103383
2267.221,0.40962
2270.204,0.408669
2273.195,0.409006
2276.194,0.408182
2279.201,0.405729
2282.215,0.401838
2285.237,0.39708
2288.268,0.3908213
2291.306,0.384659
2294.352,0.379889
2297.406,0.375709
2300.468,0.372629
2303.539,0.370812
2306.617,0.370497
2309.703,0.371126
2312.798,0.373048
2315.901,0.376685
2319.012,0.3798384
2322.131,0.384378
2325.259,0.387349
2328.395,0.389743
2331.54,0.389208
2334.692,0.3873362
2337.854,0.385523
2341.023,0.383409
2344.201,0.38186
2347.388,0.3801502
2350.583,0.378758
2353.787,0.377149
2357.0,0.375081
2360.221,0.372791
2363.451,0.37135
2366.69,0.370169
2369.937,0.370317
2373.194,0.370116
2376.459,0.371289
2379.733,0.372317
2383.016,0.373001
2386.308,0.374659
2389.609,0.375944
2392.919,0.376773
2396.238,0.377057
2399.566,0.377483
2402.903,0.377878
2406.25,0.376978
2409.606,0.37688
2412.971,0.375769
2416.345,0.374685
2419.729,0.373255
2423.122,0.37174
2426.524,0.369391
2429.936,0.3673594
2433.358,0.365685
2436.789,0.363344
2440.229,0.361918
2443.679,0.359466
2447.139,0.357936
2450.609,0.3558268
2454.088,0.354037
2457.577,0.3519755
2461.076,0.3500604
2464.585,0.348498
2468.104,0.346834
2471.632,0.345112
2475.171,0.34366
2478.72,0.341832
2482.278,0.340045
2485.847,0.33857
2489.427,0.337505
2493.016,0.336146
2496.615,0.334915
2500.225,0.334222
2503.845,0.333488
2507.476,0.332778
2511.117,0.332567
2514.769,0.332309
2518.431,0.331853
2522.103,0.332234
2525.787,0.331545
2529.48,0.331314
2533.185,0.332508
2536.9,0.331654
2540.627,0.331254
2544.364,0.331876
2548.112,0.332037
2551.87,0.332604
2555.64,0.330005
2559.421,0.3329138
2563.213,0.3371201
2567.016,0.331235
2570.831,0.3321065
2574.656,0.333163
2578.493,0.330538
2582.342,0.332503
2586.201,0.330925
2590.072,0.326609
2593.955,0.335502
2597.849,0.3237981
2601.755,0.323069
2605.672,0.326544
2609.601,0.319454
2613.542,0.316289
2617.495,0.320211
2621.459,0.314216
2625.435,0.310187
2629.424,0.312342
2633.424,0.306249
2637.437,0.298665
2641.461,0.295795
2645.498,0.293157
2649.547,0.287497
2653.609,0.286812
2657.682,0.281038
2661.768,0.27803
2665.867,0.283461
2669.978,0.277731
2674.102,0.2618859
2678.238,0.259742
2682.387,0.239183
2686.549,0.225691
2690.724,0.204091
2694.911,0.19068
2699.112,0.162145
2703.325,0.149648
2707.552,0.148844
2711.791,0.154184
2716.044,0.1288285
2720.31,0.135837
2724.589,0.115922
2728.882,0.08420589
2733.188,0.07216856
2737.508,0.06294637
2741.841,0.0591001
2746.188,0.04192495
2750.549,0.03745786
2754.923,0.0391993
2759.311,0.0332727
2763.713,0.0329395
2768.129,0.03132838
2772.559,0.02898634
2777.003,0.02674234
2781.461,0.02652626
2785.934,0.02666455
2790.42,0.02558891
2794.922,0.02370548
2799.437,0.02289559
2803.967,0.02460011
2808.512,0.02239476
2813.071,0.02251015
2817.645,0.02286569
2822.233,0.02285657
2826.837,0.02233505
2831.455,0.02235095
2836.089,0.02316386
2840.737,0.0226553
2845.401,0.02218787
2850.08,0.02289318
2854.774,0.02320596
2859.484,0.02298457
2864.209,0.02323755
2868.949,0.02307459
2873.705,0.0222025
2878.477,0.02206725
2883.265,0.02174655
2888.068,0.0219249
2892.887,0.02171751
2897.723,0.02075947
2902.574,0.02097809
2907.441,0.02062943
2912.325,0.02028708
2917.225,0.02098671
2922.142,0.02059399
2927.075,0.0199329
2932.024,0.01995828
2936.99,0.01995852
2941.973,0.01970152
2946.973,0.02030348
2951.989,0.02019052
2957.023,0.02084482
2962.073,0.01959925
2967.141,0.01987172
2972.226,0.02029175
2977.328,0.02118579
2982.448,0.01995701
2987.586,0.01996893
2992.74,0.02104447
2997.913,0.02036498
3003.103,0.02087964
3008.312,0.02026475
3013.538,0.02092995
3018.782,0.02135997
3024.044,0.02131943
3029.325,0.02257444
3034.624,0.02405942
3039.942,0.02237244
3045.278,0.02349051
3050.632,0.0226918
3056.006,0.02312562
3061.398,0.02393226
3066.809,0.02500704
3072.239,0.02378116
3077.689,0.0245926
3083.157,0.02488061
3088.645,0.02593473
3094.153,0.02560729
3099.679,0.026858
3105.226,0.02656404
3110.792,0.02659239
3116.378,0.02729252
3121.985,0.02763474
3127.611,0.02856646
3133.257,0.02913511
3138.924,0.02995197
3144.611,0.03120891
3150.319,0.03200665
3156.047,0.03305638
3161.796,0.03414475
3167.566,0.03538759
3173.356,0.03672601
3179.168,0.03941943
3185.001,0.04034813
3190.856,0.04126231
3196.731,0.04343256
3202.629,0.04423959
3208.548,0.04572513
3214.488,0.05056993
3220.451,0.05187337
3226.436,0.0519978
3232.443,0.05277844
3238.472,0.05464093
3244.523,0.05728985
3250.598,0.06028969
3256.694,0.06365212
3262.814,0.06334079
3268.956,0.0657286
3275.122,0.0671418
3281.31,0.06913248
3287.522,0.07211589
3293.757,0.07507798
3300.016,0.07744745
3306.299,0.07945427
3312.605,0.08083928
3318.936,0.08359662
3325.29,0.08719253
3331.669,0.09072793
3338.072,0.08976293
3344.499,0.09227853
3350.952,0.09490166
3357.429,0.09515047
3363.931,0.09707818
3370.458,0.09755671
3377.01,0.09744163
3383.588,0.0997086
3390.191,0.102637
3396.82,0.105295
3403.475,0.106517
3410.156,0.1065
3416.862,0.10669
3423.596,0.111613
3430.355,0.116946
3437.141,0.123354
3443.954,0.130579
3450.794,0.132146
3457.661,0.1362347
3464.556,0.139846
3471.477,0.141503
3478.426,0.143714
3485.403,0.146062
3492.408,0.149969
3499.441,0.149222
3506.502,0.152178
3513.592,0.159315
3520.71,0.166815
3527.857,0.172897
3535.032,0.179208
3542.237,0.1822301
3549.471,0.185698
3556.735,0.189909
3564.028,0.19381
3571.351,0.198152
3578.704,0.201402
3586.088,0.205717
3593.501,0.209351
3600.946,0.212543
3608.421,0.215389
3615.926,0.2192605
3623.463,0.222146
3631.032,0.2249981
3638.632,0.227983
3646.263,0.231283
3653.927,0.234935
3661.623,0.237461
3669.351,0.240719
3677.111,0.243929
3684.905,0.247728
3692.731,0.250483
3700.59,0.253593
3708.483,0.256902
3716.409,0.260043
3724.37,0.263149
3732.364,0.266099
3740.392,0.269489
3748.455,0.273043
3756.553,0.275611
3764.685,0.278388
3772.853,0.2818175
3781.056,0.284664
3789.294,0.287771
3797.568,0.290392
3805.879,0.293042
3814.225,0.295623
3822.609,0.298526
3831.029,0.301122
3839.486,0.303696
3847.98,0.30592
3856.512,0.3080458
3865.081,0.310124
3873.689,0.312072
3882.334,0.314136
3891.019,0.316238
3899.742,0.31834
3908.504,0.320133
3917.305,0.321895
3926.146,0.323175
3935.027,0.325062
3943.948,0.326603
3952.909,0.328492
3961.911,0.330239
3970.954,0.331957
3980.038,0.3335853
3989.163,0.33506
3998.33,0.336307
4007.54,0.33751
4016.791,0.338424
4026.086,0.339419
4035.423,0.340348
4044.804,0.341735
4054.228,0.343009
4063.695,0.344473
4073.207,0.345995
4082.764,0.346892
4092.365,0.348408
4102.012,0.349852
4111.703,0.351545
4121.441,0.353411
4131.224,0.355265
4141.054,0.357205
4150.931,0.35928
4160.854,0.361302
4170.826,0.36297
4180.844,0.364901
4190.911,0.36826
4201.026,0.379256
4211.19,0.405141
4221.404,0.438521
4231.666,0.4654
4241.979,0.471118
4252.341,0.4417692
4262.754,0.431514
4273.219,0.456484
4283.734,0.4570292
4294.301,0.455997
4304.92,0.449899
4315.592,0.439935
4326.317,0.429963
4337.095,0.423108
4347.926,0.419286
4358.811,0.41819
4369.751,0.418681
4380.746,0.4200106
4391.796,0.423693
4402.902,0.4270529
4414.064,0.430283
4425.282,0.4330116
4436.558,0.435926
4447.891,0.438705
4459.281,0.4415233
4470.73,0.443981
4482.238,0.446505
4493.805,0.449216
4505.431,0.451652
4517.118,0.454056
4528.865,0.457241
4540.674,0.460499
4552.543,0.462436
4564.475,0.465567
4576.47,0.468669
4588.527,0.471675
4600.648,0.4744151
4612.833,0.477036
4625.082,0.480197
4637.397,0.483354
4649.777,0.48608
4662.223,0.48942
4674.735,0.49269
4687.315,0.496499
4699.962,0.4994692
4712.678,0.503199
4725.463,0.5068493
4738.316,0.509708
4751.24,0.513276
4764.234,0.516725
4777.299,0.521198
4790.436,0.524626
4803.645,0.526137
4816.927,0.528981
4830.283,0.532222
4843.712,0.536771
4857.216,0.538575
4870.795,0.541348
4884.451,0.544404
4898.182,0.54793
4911.991,0.549109
4925.878,0.551043
4939.844,0.554028
4953.888,0.559233
4968.013,0.559325
4982.218,0.560839
4996.504,0.563364
5010.872,0.567609
5025.323,0.574193
5039.857,0.5718056
5054.475,0.574365
5069.179,0.57801
5083.967,0.585595
5098.842,0.584941
5113.804,0.588275
5128.854,0.59042
5143.992,0.601708
5159.22,0.597126
5174.538,0.598327
5189.947,0.602211
5205.448,0.613398
5221.041,0.610048
5236.728,0.610599
5252.51,0.6076823
5268.386,0.610311
5284.358,0.616621
5300.428,0.616598
5316.595,0.614559
5332.86,0.616907
5349.226,0.642003
5365.692,0.626099
5382.259,0.627467
5398.928,0.631357
5415.701,0.657809
5432.579,0.652977
5449.561,0.655787
5466.65,0.688046
5483.846,0.689926
5501.15,0.69816
5518.564,0.743152
5536.087,0.803181
5553.723,0.953702
5571.47,0.657861
5589.332,0.449807
5607.307,0.477538
5625.399,0.5173337
5643.607,0.551301
5661.934,0.558089
5680.379,0.576318
5698.945,0.582367
5717.633,0.601637
5736.443,0.602894
5755.377,0.613769
5774.436,0.620296
5793.621,0.606484
5812.934,0.630851
5832.376,0.633732
5851.948,0.62965
5871.652,0.6562943
5891.488,0.662524
5911.459,0.637526
5931.565,0.671198
5951.809,0.6520662
5972.19,0.663709
5992.711,0.663494
6013.374,0.658164
6034.179,0.670936
6055.129,0.692323
6076.224,0.68096
6097.466,0.675132
6118.857,0.6839764
6140.398,0.678759
6162.091,0.686003
6183.938,0.694846
6205.94,0.6847043
6228.099,0.6886451
6250.416,0.691163
6272.893,0.695648
6295.533,0.6975283
6318.336,0.702209
6341.304,0.724911
6364.44,0.726393
6387.745,0.725243
6411.221,0.771863
6434.869,0.739032
6458.693,0.740699
6482.693,0.780473
6506.872,0.756184
6531.231,0.753118
6555.774,0.773421
6580.501,0.779215
6605.415,0.769251
6630.518,0.797198
6655.812,0.763208
6681.3,0.769376
6706.983,0.779214
6732.864,0.761644
6758.945,0.768296
6785.229,0.7866527
6811.718,0.769838
6838.413,0.77778
6865.319,0.790302
6892.437,0.77243
6919.769,0.767264
6947.319,0.782903
6975.089,0.778319
7003.081,0.778412
7031.298,0.7922664
7059.743,0.784135
7088.419,0.781791
7117.329,0.787861
7146.475,0.800023
7175.86,0.795546
7205.487,0.79909
7235.36,0.795645
7265.481,0.805412
7295.854,0.802345
7326.481,0.810518
7357.366,0.80626
7388.512,0.806794
7419.922,0.808381
7451.601,0.817446
7483.55,0.8141541
7515.774,0.814104
7548.277,0.816998
7581.061,0.8211701
7614.131,0.821861
7647.491,0.822668
7681.143,0.824091
7715.093,0.8257452
7749.343,0.8275436
7783.899,0.82815
7818.764,0.829674
7853.942,0.8320218
7889.437,0.83374
7925.254,0.836287
7961.398,0.837583
7997.872,0.839535
8034.682,0.841342
8071.832,0.843174
8109.326,0.845115
8147.169,0.846537
8185.368,0.847566
8223.925,0.84824
8262.847,0.84879
8302.139,0.849565
8341.805,0.850707
8381.852,0.851862
8422.285,0.853037
8463.109,0.853386
8504.331,0.854378
8545.955,0.85498
8587.989,0.855673
8630.437,0.85693
8673.307,0.857917
8716.604,0.858836
8760.335,0.859524
8804.507,0.860712
8849.125,0.861657
8894.198,0.862674
8939.732,0.863556
8985.733,0.864006
9032.21,0.864885
9079.17,0.865268
9126.62,0.865891
9174.568,0.866192
9223.022,0.866426
9271.99,0.866759
9321.48,0.867246
9371.5,0.867941
9422.06,0.868975
9473.167,0.870123
9524.832,0.870994
9577.062,0.871879
9629.868,0.872742
9683.259,0.8737121
9737.244,0.874767
9791.834,0.87589
9847.039,0.87734
9902.869,0.878202
9959.336,0.878874
10016.449,0.879829
10074.221,0.880688
10132.662,0.881329
10191.784,0.8823684
10251.6,0.882999
10312.121,0.884001
10373.36,0.884761
10435.331,0.885451
10498.045,0.886136
10561.517,0.8867635
10625.761,0.887342
10690.79,0.88784
10756.619,0.8876811
10823.264,0.887261
10890.738,0.886446
10959.058,0.885806
11028.24,0.885219
11098.301,0.884633
11169.256,0.884445
11241.124,0.884298
11313.921,0.88444
11387.667,0.885181
11462.38,0.885687
11538.079,0.886399
11614.783,0.886858
11692.513,0.887014
11771.29,0.887373
11851.134,0.887662
11932.068,0.887776
12014.114,0.888562
12097.296,0.887936
12181.636,0.886619
12267.16,0.887269
12353.892,0.888092
12441.859,0.888231
12531.086,0.888405
12621.601,0.888436
12713.432,0.888707
12806.608,0.88894
12901.159,0.889509
12997.116,0.888742
13094.51,0.8886
13193.373,0.888166
13293.74,0.888038
13395.644,0.888184
13499.121,0.888546
13604.208,0.8880925
13710.943,0.888238
13819.365,0.887675
13929.515,0.886077
14041.433,0.884557
14155.163,0.88254
14270.749,0.879008
14388.237,0.874022
14507.674,0.869101
14629.109,0.860618
14752.594,0.848194
14878.179,0.833856
15005.92,0.810581
15135.871,0.776221
15268.092,0.725457
15402.642,0.655955
15539.583,0.5800986
15678.979,0.498335
15820.897,0.423322
15965.407,0.365713