File: csv_library/FTIR_CLAY_11.csv
Database of Origin,University of Winnipeg Spectrophotometer Facility
Sample Description,See Master Clays in HOSERLab database
Date Added,2016-12-11 20:56:55.3016

Data ID,FTIR_CLAY_11
Sample ID,MON101
Mineral Name,Montmorillonite
Grain Size,<45 m
Viewing Geometry,35/0
Resolution,11-72 nm
Material Class,Phyllosilicate

Wavelength
2001.142,0.312051
2003.474,0.3128507
2005.812,0.314659
2008.155,0.3156274
2010.504,0.3180078
2012.858,0.31847
2015.217,0.320067
2017.582,0.321323
2019.952,0.3227039
2022.328,0.324447
2024.709,0.325459
2027.096,0.326036
2029.488,0.326711
2031.886,0.327755
2034.289,0.328435
2036.698,0.329232
2039.113,0.33076
2041.533,0.331663
2043.959,0.333359
2046.391,0.3341
2048.828,0.334637
2051.271,0.33585
2053.72,0.337544
2056.175,0.336549
2058.635,0.337547
2061.101,0.338198
2063.573,0.33908
2066.051,0.339769
2068.534,0.340131
2071.024,0.340433
2073.519,0.340812
2076.02,0.341316
2078.528,0.341978
2081.041,0.342428
2083.56,0.343211
2086.085,0.343512
2088.617,0.34385
2091.154,0.344413
2093.697,0.344588
2096.247,0.345235
2098.803,0.345666
2101.364,0.346329
2103.932,0.34746
2106.506,0.347588
2109.087,0.347983
2111.673,0.348919
2114.266,0.349974
2116.865,0.35007
2119.471,0.351154
2122.082,0.352051
2124.7,0.3527432
2127.325,0.351894
2129.956,0.352114
2132.593,0.352383
2135.237,0.353612
2137.887,0.353522
2140.544,0.354193
2143.207,0.3546559
2145.876,0.353907
2148.553,0.353159
2151.235,0.353402
2153.925,0.353259
2156.621,0.351436
2159.324,0.350945
2162.033,0.349079
2164.749,0.347771
2167.472,0.347003
2170.202,0.345508
2172.938,0.343096
2175.682,0.340395
2178.432,0.338736
2181.189,0.336606
2183.952,0.33512
2186.723,0.332914
2189.501,0.331768
2192.285,0.329977
2195.077,0.326993
2197.876,0.325478
2200.682,0.323197
2203.494,0.320648
2206.314,0.318629
2209.141,0.319224
2211.975,0.319808
2214.817,0.321109
2217.665,0.322737
2220.521,0.324183
2223.384,0.324892
2226.254,0.325957
2229.132,0.327425
2232.017,0.32828
2234.91,0.328831
2237.809,0.329709
2240.717,0.330301
2243.631,0.332143
2246.554,0.333179
2249.483,0.334305
2252.421,0.336004
2255.365,0.3369214
2258.318,0.337913
2261.278,0.339649
2264.246,0.340707
2267.221,0.34156
2270.204,0.341602
2273.195,0.341915
2276.194,0.341486
2279.201,0.341125
2282.215,0.341473
2285.237,0.340495
2288.268,0.340221
2291.306,0.340208
2294.352,0.339757
2297.406,0.339176
2300.468,0.338501
2303.539,0.337539
2306.617,0.3362013
2309.703,0.335321
2312.798,0.333909
2315.901,0.332459
2319.012,0.330259
2322.131,0.328605
2325.259,0.326918
2328.395,0.324473
2331.54,0.322879
2334.692,0.320474
2337.854,0.31821
2341.023,0.316761
2344.201,0.315438
2347.388,0.314685
2350.583,0.313711
2353.787,0.312806
2357.0,0.31217
2360.221,0.310906
2363.451,0.310055
2366.69,0.309049
2369.937,0.307708
2373.194,0.306801
2376.459,0.3055124
2379.733,0.304617
2383.016,0.303934
2386.308,0.303332
2389.609,0.302222
2392.919,0.301613
2396.238,0.300043
2399.566,0.299005
2402.903,0.297957
2406.25,0.296966
2409.606,0.2958193
2412.971,0.294097
2416.345,0.292187
2419.729,0.289987
2423.122,0.28802
2426.524,0.2862
2429.936,0.28402
2433.358,0.281991
2436.789,0.2801122
2440.229,0.278672
2443.679,0.277651
2447.139,0.2765861
2450.609,0.27499
2454.088,0.274159
2457.577,0.272736
2461.076,0.271343
2464.585,0.27017
2468.104,0.269616
2471.632,0.2685111
2475.171,0.266871
2478.72,0.265563
2482.278,0.26481
2485.847,0.262975
2489.427,0.262715
2493.016,0.261034
2496.615,0.26047
2500.225,0.259405
2503.845,0.2591143
2507.476,0.258179
2511.117,0.257818
2514.769,0.257043
2518.431,0.256365
2522.103,0.2564
2525.787,0.256052
2529.48,0.255867
2533.185,0.256461
2536.9,0.256369
2540.627,0.255594
2544.364,0.256779
2548.112,0.256636
2551.87,0.257426
2555.64,0.255777
2559.421,0.257497
2563.213,0.26148
2567.016,0.256892
2570.831,0.25761
2574.656,0.259267
2578.493,0.256661
2582.342,0.258479
2586.201,0.257891
2590.072,0.254828
2593.955,0.261218
2597.849,0.25411
2601.755,0.253305
2605.672,0.256841
2609.601,0.251239
2613.542,0.249421
2617.495,0.252689
2621.459,0.248004
2625.435,0.244786
2629.424,0.2467965
2633.424,0.242522
2637.437,0.236724
2641.461,0.234629
2645.498,0.23314
2649.547,0.22871
2653.609,0.227606
2657.682,0.222957
2661.768,0.220025
2665.867,0.22394
2669.978,0.219559
2674.102,0.206422
2678.238,0.204066
2682.387,0.186171
2686.549,0.175572
2690.724,0.157617
2694.911,0.1470046
2699.112,0.122157
2703.325,0.10436
2707.552,0.09440202
2711.791,0.08840956
2716.044,0.06896599
2720.31,0.0717456
2724.589,0.06088781
2728.882,0.04518684
2733.188,0.03931705
2737.508,0.03477024
2741.841,0.03389889
2746.188,0.02486812
2750.549,0.02321986
2754.923,0.02491266
2759.311,0.02166418
2763.713,0.02258437
2768.129,0.02255221
2772.559,0.02183231
2777.003,0.02049785
2781.461,0.02087917
2785.934,0.02107351
2790.42,0.02106428
2794.922,0.02029241
2799.437,0.02021509
2803.967,0.02248313
2808.512,0.02100186
2813.071,0.02042779
2817.645,0.02098063
2822.233,0.02089976
2826.837,0.02018015
2831.455,0.02004222
2836.089,0.02025282
2840.737,0.01893888
2845.401,0.01891279
2850.08,0.01860648
2854.774,0.01894029
2859.484,0.01802851
2864.209,0.01805284
2868.949,0.01794073
2873.705,0.01749743
2878.477,0.01679014
2883.265,0.01675072
2888.068,0.01631879
2892.887,0.01653196
2897.723,0.01606368
2902.574,0.01622631
2907.441,0.01625797
2912.325,0.01575359
2917.225,0.01603688
2922.142,0.01571474
2927.075,0.01555734
2932.024,0.01493039
2936.99,0.01486394
2941.973,0.01492171
2946.973,0.01527263
2951.989,0.01496187
2957.023,0.01514058
2962.073,0.01487636
2967.141,0.01513271
2972.226,0.01490648
2977.328,0.01541893
2982.448,0.01478247
2987.586,0.0146385
2992.74,0.01527618
2997.913,0.01486503
3003.103,0.01511863
3008.312,0.01479758
3013.538,0.01506893
3018.782,0.01508895
3024.044,0.01486954
3029.325,0.01635431
3034.624,0.01736622
3039.942,0.0161232
3045.278,0.0165733
3050.632,0.01614283
3056.006,0.0161084
3061.398,0.0166959
3066.809,0.01762438
3072.239,0.01684746
3077.689,0.01704362
3083.157,0.01724368
3088.645,0.01798848
3094.153,0.0176581
3099.679,0.01875305
3105.226,0.0188382
3110.792,0.0183223
3116.378,0.01902653
3121.985,0.01904749
3127.611,0.0194757
3133.257,0.02017489
3138.924,0.02091124
3144.611,0.02184033
3150.319,0.02259323
3156.047,0.02355018
3161.796,0.02453419
3167.566,0.02581644
3173.356,0.02710689
3179.168,0.02977125
3185.001,0.03094536
3190.856,0.03154816
3196.731,0.03396921
3202.629,0.03455756
3208.548,0.03608443
3214.488,0.04127395
3220.451,0.04240886
3226.436,0.04273692
3232.443,0.04356129
3238.472,0.04571667
3244.523,0.04820899
3250.598,0.051369
3256.694,0.05519933
3262.814,0.05450647
3268.956,0.05696438
3275.122,0.05839666
3281.31,0.06037543
3287.522,0.06346284
3293.757,0.06671714
3300.016,0.06918843
3306.299,0.07153478
3312.605,0.07298454
3318.936,0.07567935
3325.29,0.07988867
3331.669,0.08383048
3338.072,0.08291207
3344.499,0.08627728
3350.952,0.08991771
3357.429,0.09087786
3363.931,0.09437011
3370.458,0.09696661
3377.01,0.09851397
3383.588,0.101459
3390.191,0.1049297
3396.82,0.108996
3403.475,0.112804
3410.156,0.115321
3416.862,0.116619
3423.596,0.121519
3430.355,0.124274
3437.141,0.128887
3443.954,0.1349115
3450.794,0.135266
3457.661,0.138335
3464.556,0.142127
3471.477,0.144596
3478.426,0.147492
3485.403,0.1504436
3492.408,0.15541
3499.441,0.1565928
3506.502,0.160082
3513.592,0.163636
3520.71,0.167591
3527.857,0.171167
3535.032,0.176467
3542.237,0.178027
3549.471,0.180987
3556.735,0.184157
3564.028,0.187544
3571.351,0.191447
3578.704,0.194524
3586.088,0.198311
3593.501,0.201339
3600.946,0.204168
3608.421,0.206094
3615.926,0.209903
3623.463,0.212274
3631.032,0.214624
3638.632,0.217125
3646.263,0.219968
3653.927,0.222521
3661.623,0.224383
3669.351,0.227047
3677.111,0.229592
3684.905,0.232388
3692.731,0.234136
3700.59,0.236561
3708.483,0.238879
3716.409,0.240989
3724.37,0.243065
3732.364,0.244972
3740.392,0.2470958
3748.455,0.249389
3756.553,0.251097
3764.685,0.252772
3772.853,0.25473
3781.056,0.256619
3789.294,0.258191
3797.568,0.259812
3805.879,0.261783
3814.225,0.263185
3822.609,0.264508
3831.029,0.2659259
3839.486,0.267281
3847.98,0.2685141
3856.512,0.269727
3865.081,0.27085
3873.689,0.2720882
3882.334,0.272952
3891.019,0.274119
3899.742,0.275027
3908.504,0.275873
3917.305,0.276589
3926.146,0.277286
3935.027,0.2778237
3943.948,0.278465
3952.909,0.279049
3961.911,0.279795
3970.954,0.2804517
3980.038,0.281338
3989.163,0.281469
3998.33,0.281713
4007.54,0.281895
4016.791,0.281642
4026.086,0.281913
4035.423,0.281975
4044.804,0.282105
4054.228,0.281934
4063.695,0.282241
4073.207,0.282437
4082.764,0.282546
4092.365,0.282648
4102.012,0.282772
4111.703,0.283307
4121.441,0.28366
4131.224,0.284196
4141.054,0.28442
4150.931,0.285023
4160.854,0.285467
4170.826,0.286256
4180.844,0.28668
4190.911,0.288722
4201.026,0.2962139
4211.19,0.31286
4221.404,0.333939
4231.666,0.350709
4241.979,0.356231
4252.341,0.337773
4262.754,0.331495
4273.219,0.346381
4283.734,0.345161
4294.301,0.345047
4304.92,0.341168
4315.592,0.334056
4326.317,0.3275866
4337.095,0.321819
4347.926,0.318239
4358.811,0.317153
4369.751,0.316446
4380.746,0.316661
4391.796,0.3187736
4402.902,0.321214
4414.064,0.323338
4425.282,0.3253005
4436.558,0.327281
4447.891,0.329165
4459.281,0.33158
4470.73,0.333868
4482.238,0.336421
4493.805,0.339124
4505.431,0.341762
4517.118,0.3446963
4528.865,0.347533
4540.674,0.350541
4552.543,0.353026
4564.475,0.355645
4576.47,0.35845
4588.527,0.361144
4600.648,0.363981
4612.833,0.366787
4625.082,0.369678
4637.397,0.372277
4649.777,0.374941
4662.223,0.377775
4674.735,0.3808639
4687.315,0.383891
4699.962,0.387595
4712.678,0.391538
4725.463,0.395859
4738.316,0.399586
4751.24,0.403648
4764.234,0.407528
4777.299,0.411857
4790.436,0.4162528
4803.645,0.419413
4816.927,0.423216
4830.283,0.426702
4843.712,0.4314316
4857.216,0.433489
4870.795,0.4364827
4884.451,0.439285
4898.182,0.44266
4911.991,0.44337
4925.878,0.4453062
4939.844,0.448399
4953.888,0.453673
4968.013,0.453633
4982.218,0.45471
4996.504,0.456821
5010.872,0.461305
5025.323,0.468425
5039.857,0.466995
5054.475,0.470764
5069.179,0.474847
5083.967,0.483886
5098.842,0.483763
5113.804,0.4878724
5128.854,0.49087
5143.992,0.5027568
5159.22,0.49905
5174.538,0.501316
5189.947,0.50641
5205.448,0.518746
5221.041,0.5160607
5236.728,0.5174871
5252.51,0.514576
5268.386,0.517757
5284.358,0.524916
5300.428,0.525259
5316.595,0.52376
5332.86,0.526749
5349.226,0.554374
5365.692,0.5389844
5382.259,0.5416549
5398.928,0.54741
5415.701,0.574827
5432.579,0.56836
5449.561,0.567555
5466.65,0.590215
5483.846,0.5765091
5501.15,0.5633
5518.564,0.564299
5536.087,0.546971
5553.723,0.530666
5571.47,0.487799
5589.332,0.615926
5607.307,0.631116
5625.399,0.630115
5643.607,0.652223
5661.934,0.627705
5680.379,0.637493
5698.945,0.637758
5717.633,0.659118
5736.443,0.649526
5755.377,0.660944
5774.436,0.6629694
5793.621,0.634655
5812.934,0.668977
5832.376,0.668529
5851.948,0.658263
5871.652,0.694905
5891.488,0.702169
5911.459,0.660206
5931.565,0.708637
5951.809,0.6772731
5972.19,0.691187
5992.711,0.68799
6013.374,0.67981
6034.179,0.698169
6055.129,0.7298136
6076.224,0.710958
6097.466,0.701647
6118.857,0.712655
6140.398,0.704061
6162.091,0.713233
6183.938,0.722761
6205.94,0.705979
6228.099,0.7083485
6250.416,0.708068
6272.893,0.714048
6295.533,0.714953
6318.336,0.720998
6341.304,0.750666
6364.44,0.7506203
6387.745,0.747869
6411.221,0.813294
6434.869,0.764622
6458.693,0.764941
6482.693,0.819602
6506.872,0.783153
6531.231,0.775961
6555.774,0.802485
6580.501,0.80931
6605.415,0.791849
6630.518,0.832394
6655.812,0.784716
6681.3,0.791604
6706.983,0.803899
6732.864,0.780556
6758.945,0.789055
6785.229,0.814004
6811.718,0.792601
6838.413,0.8033
6865.319,0.819885
6892.437,0.795931
6919.769,0.7897987
6947.319,0.808802
6975.089,0.804025
7003.081,0.8030156
7031.298,0.820485
7059.743,0.810128
7088.419,0.806275
7117.329,0.813056
7146.475,0.8272869
7175.86,0.8202032
7205.487,0.823462
7235.36,0.8188447
7265.481,0.829654
7295.854,0.825317
7326.481,0.835598
7357.366,0.829341
7388.512,0.829691
7419.922,0.831208
7451.601,0.842906
7483.55,0.83792
7515.774,0.838015
7548.277,0.84094
7581.061,0.846078
7614.131,0.846154
7647.491,0.846474
7681.143,0.848403
7715.093,0.850839
7749.343,0.853731
7783.899,0.854703
7818.764,0.856928
7853.942,0.860289
7889.437,0.8626373
7925.254,0.86581
7961.398,0.866846
7997.872,0.8688168
8034.682,0.871274
8071.832,0.873291
8109.326,0.875505
8147.169,0.877605
8185.368,0.87943
8223.925,0.881041
8262.847,0.882556
8302.139,0.88399
8341.805,0.8854831
8381.852,0.887282
8422.285,0.889018
8463.109,0.890082
8504.331,0.890907
8545.955,0.892114
8587.989,0.893408
8630.437,0.8946629
8673.307,0.896192
8716.604,0.897616
8760.335,0.899165
8804.507,0.900559
8849.125,0.90235
8894.198,0.9037735
8939.732,0.904872
8985.733,0.9059909
9032.21,0.906772
9079.17,0.907399
9126.62,0.908383
9174.568,0.908622
9223.022,0.908572
9271.99,0.909016
9321.48,0.909552
9371.5,0.910376
9422.06,0.911289
9473.167,0.912451
9524.832,0.913209
9577.062,0.913904
9629.868,0.9147376
9683.259,0.915042
9737.244,0.915822
9791.834,0.91662
9847.039,0.91759
9902.869,0.918018
9959.336,0.918895
10016.449,0.9195682
10074.221,0.920498
10132.662,0.921682
10191.784,0.922982
10251.6,0.9238521
10312.121,0.924821
10373.36,0.925556
10435.331,0.926302
10498.045,0.926765
10561.517,0.927248
10625.761,0.92768
10690.79,0.928275
10756.619,0.928952
10823.264,0.929396
10890.738,0.929739
10959.058,0.930124
11028.24,0.930254
11098.301,0.930691
11169.256,0.930764
11241.124,0.931083
11313.921,0.931554
11387.667,0.931766
11462.38,0.932636
11538.079,0.933365
11614.783,0.934382
11692.513,0.935608
11771.29,0.936622
11851.134,0.937456
11932.068,0.938459
12014.114,0.938952
12097.296,0.939244
12181.636,0.939163
12267.16,0.9394687
12353.892,0.939856
12441.859,0.9408221
12531.086,0.941142
12621.601,0.941263
12713.432,0.941633
12806.608,0.942365
12901.159,0.943287
12997.116,0.944287
13094.51,0.944995
13193.373,0.945221
13293.74,0.945266
13395.644,0.945466
13499.121,0.945677
13604.208,0.945744
13710.943,0.946524
13819.365,0.94694
13929.515,0.9472694
14041.433,0.94762
14155.163,0.948067
14270.749,0.947949
14388.237,0.948873
14507.674,0.9488713
14629.109,0.9473216
14752.594,0.9442726
14878.179,0.944222
15005.92,0.939677
15135.871,0.927591
15268.092,0.916798
15402.642,0.898209
15539.583,0.871078
15678.979,0.82282
15820.897,0.756541
15965.407,0.679414