File: csv_library/FTIR_CLAY_01.csv
Database of Origin,University of Winnipeg Spectrophotometer Facility
Sample Description,See Master Clays in HOSERLab database
Date Added,2016-12-11 20:56:55.086

Data ID,FTIR_CLAY_01
Sample ID,BEI101
Mineral Name,Beidellite
Grain Size,<45 m
Viewing Geometry,35/0
Resolution,11-72 nm
Material Class,Phyllosilicate

Wavelength
2001.142,0.379537
2003.474,0.3816649
2005.812,0.38362
2008.155,0.385746
2010.504,0.387746
2012.858,0.389435
2015.217,0.3909764
2017.582,0.393107
2019.952,0.394664
2022.328,0.396428
2024.709,0.397747
2027.096,0.399422
2029.488,0.400546
2031.886,0.402447
2034.289,0.40397
2036.698,0.405892
2039.113,0.4067339
2041.533,0.408155
2043.959,0.409534
2046.391,0.410768
2048.828,0.411693
2051.271,0.412258
2053.72,0.41367
2056.175,0.414364
2058.635,0.415898
2061.101,0.416577
2063.573,0.41757
2066.051,0.4185943
2068.534,0.418889
2071.024,0.41961
2073.519,0.420541
2076.02,0.4211868
2078.528,0.421818
2081.041,0.421955
2083.56,0.422245
2086.085,0.423438
2088.617,0.423872
2091.154,0.424765
2093.697,0.4247595
2096.247,0.424968
2098.803,0.426141
2101.364,0.426167
2103.932,0.427645
2106.506,0.428784
2109.087,0.428688
2111.673,0.4300347
2114.266,0.431466
2116.865,0.432337
2119.471,0.432765
2122.082,0.433266
2124.7,0.433324
2127.325,0.433061
2129.956,0.432822
2132.593,0.433163
2135.237,0.433109
2137.887,0.432611
2140.544,0.432443
2143.207,0.431065
2145.876,0.429162
2148.553,0.428147
2151.235,0.426233
2153.925,0.4240438
2156.621,0.421407
2159.324,0.418032
2162.033,0.415871
2164.749,0.414068
2167.472,0.411713
2170.202,0.409642
2172.938,0.406634
2175.682,0.403954
2178.432,0.400768
2181.189,0.398086
2183.952,0.394993
2186.723,0.392464
2189.501,0.389381
2192.285,0.386428
2195.077,0.383807
2197.876,0.381525
2200.682,0.377924
2203.494,0.3722644
2206.314,0.368033
2209.141,0.371789
2211.975,0.3784642
2214.817,0.381984
2217.665,0.385352
2220.521,0.38827
2223.384,0.389924
2226.254,0.3909091
2229.132,0.392129
2232.017,0.393629
2234.91,0.394607
2237.809,0.39509
2240.717,0.396508
2243.631,0.3979637
2246.554,0.399186
2249.483,0.399957
2252.421,0.401537
2255.365,0.402765
2258.318,0.404365
2261.278,0.404802
2264.246,0.405507
2267.221,0.4064051
2270.204,0.406032
2273.195,0.405903
2276.194,0.405051
2279.201,0.40399
2282.215,0.4027241
2285.237,0.402034
2288.268,0.400658
2291.306,0.399077
2294.352,0.3978607
2297.406,0.396432
2300.468,0.394561
2303.539,0.393497
2306.617,0.392015
2309.703,0.389579
2312.798,0.387154
2315.901,0.384853
2319.012,0.381717
2322.131,0.379677
2325.259,0.37693
2328.395,0.374578
2331.54,0.371623
2334.692,0.36924
2337.854,0.366894
2341.023,0.364236
2344.201,0.362839
2347.388,0.360676
2350.583,0.358607
2353.787,0.357036
2357.0,0.3551489
2360.221,0.353406
2363.451,0.352091
2366.69,0.350116
2369.937,0.348313
2373.194,0.345959
2376.459,0.344164
2379.733,0.341653
2383.016,0.340437
2386.308,0.339166
2389.609,0.338164
2392.919,0.336877
2396.238,0.335362
2399.566,0.333708
2402.903,0.332795
2406.25,0.330048
2409.606,0.3283553
2412.971,0.325614
2416.345,0.323414
2419.729,0.3207707
2423.122,0.318004
2426.524,0.314906
2429.936,0.312153
2433.358,0.3090445
2436.789,0.306189
2440.229,0.3042947
2443.679,0.301877
2447.139,0.300126
2450.609,0.298141
2454.088,0.29686
2457.577,0.294611
2461.076,0.292973
2464.585,0.291353
2468.104,0.289796
2471.632,0.287897
2475.171,0.286285
2478.72,0.284415
2482.278,0.282452
2485.847,0.280361
2489.427,0.278836
2493.016,0.277451
2496.615,0.276004
2500.225,0.274755
2503.845,0.273821
2507.476,0.272516
2511.117,0.271473
2514.769,0.270934
2518.431,0.270216
2522.103,0.270007
2525.787,0.268852
2529.48,0.268823
2533.185,0.26905
2536.9,0.2687115
2540.627,0.268386
2544.364,0.26881
2548.112,0.269143
2551.87,0.269971
2555.64,0.2675613
2559.421,0.2699259
2563.213,0.273612
2567.016,0.268052
2570.831,0.268898
2574.656,0.269966
2578.493,0.2675
2582.342,0.270175
2586.201,0.268642
2590.072,0.264985
2593.955,0.274728
2597.849,0.263554
2601.755,0.263023
2605.672,0.266424
2609.601,0.25958
2613.542,0.2566211
2617.495,0.2606722
2621.459,0.255077
2625.435,0.251143
2629.424,0.25333
2633.424,0.246881
2637.437,0.239764
2641.461,0.236985
2645.498,0.234754
2649.547,0.229275
2653.609,0.227853
2657.682,0.221199
2661.768,0.21745
2665.867,0.221815
2669.978,0.215114
2674.102,0.19864
2678.238,0.195264
2682.387,0.173316
2686.549,0.158168
2690.724,0.135221
2694.911,0.122398
2699.112,0.09673734
2703.325,0.08556436
2707.552,0.08747208
2711.791,0.09881594
2716.044,0.08207665
2720.31,0.09513581
2724.589,0.08275966
2728.882,0.06008373
2733.188,0.05253893
2737.508,0.04718985
2741.841,0.04606963
2746.188,0.03217721
2750.549,0.02990984
2754.923,0.03269628
2759.311,0.02739746
2763.713,0.02845943
2768.129,0.0280515
2772.559,0.02683794
2777.003,0.02493196
2781.461,0.02554487
2785.934,0.02588606
2790.42,0.02517597
2794.922,0.02456432
2799.437,0.02456904
2803.967,0.02693173
2808.512,0.02463754
2813.071,0.02391534
2817.645,0.02419845
2822.233,0.02418315
2826.837,0.02362116
2831.455,0.02308587
2836.089,0.02337755
2840.737,0.02244598
2845.401,0.02161438
2850.08,0.02177006
2854.774,0.02226748
2859.484,0.02127761
2864.209,0.02130582
2868.949,0.02081382
2873.705,0.02071882
2878.477,0.02016417
2883.265,0.01993297
2888.068,0.02001298
2892.887,0.01989702
2897.723,0.01930584
2902.574,0.01908797
2907.441,0.01910164
2912.325,0.01871738
2917.225,0.019096
2922.142,0.01933807
2927.075,0.01885472
2932.024,0.01885537
2936.99,0.018777
2941.973,0.01890441
2946.973,0.01957349
2951.989,0.01891127
2957.023,0.01921075
2962.073,0.01876067
2967.141,0.01906154
2972.226,0.01914585
2977.328,0.01973914
2982.448,0.01885072
2987.586,0.01921587
2992.74,0.01987156
2997.913,0.01937492
3003.103,0.01971547
3008.312,0.01986078
3013.538,0.01991605
3018.782,0.02019705
3024.044,0.02019394
3029.325,0.02078365
3034.624,0.02196124
3039.942,0.02091643
3045.278,0.02173088
3050.632,0.02122759
3056.006,0.02120144
3061.398,0.02204586
3066.809,0.02274893
3072.239,0.02201602
3077.689,0.02205539
3083.157,0.02274724
3088.645,0.0234582
3094.153,0.02319878
3099.679,0.02407977
3105.226,0.02405363
3110.792,0.02387727
3116.378,0.02441966
3121.985,0.02473812
3127.611,0.02511439
3133.257,0.02559617
3138.924,0.02629547
3144.611,0.02686662
3150.319,0.02765512
3156.047,0.02833886
3161.796,0.02931689
3167.566,0.03028146
3173.356,0.03137855
3179.168,0.03370281
3185.001,0.03458795
3190.856,0.03523451
3196.731,0.03709282
3202.629,0.03787449
3208.548,0.03933348
3214.488,0.04353705
3220.451,0.04478636
3226.436,0.04505974
3232.443,0.04599454
3238.472,0.04776507
3244.523,0.05027341
3250.598,0.05309524
3256.694,0.05641085
3262.814,0.05610936
3268.956,0.05850371
3275.122,0.05991779
3281.31,0.0619147
3287.522,0.06484597
3293.757,0.06790107
3300.016,0.07028292
3306.299,0.07227238
3312.605,0.07420143
3318.936,0.07719366
3325.29,0.08127083
3331.669,0.08464721
3338.072,0.08489599
3344.499,0.0883244
3350.952,0.09189482
3357.429,0.09365661
3363.931,0.0968823
3370.458,0.09970839
3377.01,0.102015
3383.588,0.105095
3390.191,0.108648
3396.82,0.11295
3403.475,0.116861
3410.156,0.119511
3416.862,0.121363
3423.596,0.126491
3430.355,0.130213
3437.141,0.135046
3443.954,0.141389
3450.794,0.143083
3457.661,0.1469555
3464.556,0.151418
3471.477,0.154574
3478.426,0.157991
3485.403,0.1618075
3492.408,0.167037
3499.441,0.168475
3506.502,0.172319
3513.592,0.1766632
3520.71,0.181684
3527.857,0.186381
3535.032,0.191959
3542.237,0.19475
3549.471,0.198436
3556.735,0.2026425
3564.028,0.206594
3571.351,0.211207
3578.704,0.214862
3586.088,0.219218
3593.501,0.222637
3600.946,0.225956
3608.421,0.228827
3615.926,0.23297
3623.463,0.235884
3631.032,0.238995
3638.632,0.2421976
3646.263,0.245611
3653.927,0.249006
3661.623,0.251626
3669.351,0.254923
3677.111,0.258456
3684.905,0.262062
3692.731,0.264656
3700.59,0.267563
3708.483,0.270852
3716.409,0.274332
3724.37,0.277072
3732.364,0.279713
3740.392,0.282639
3748.455,0.285621
3756.553,0.288192
3764.685,0.290886
3772.853,0.293365
3781.056,0.2957776
3789.294,0.297891
3797.568,0.2999684
3805.879,0.302195
3814.225,0.304149
3822.609,0.305873
3831.029,0.30758
3839.486,0.309026
3847.98,0.310436
3856.512,0.311968
3865.081,0.313105
3873.689,0.314397
3882.334,0.315561
3891.019,0.317054
3899.742,0.317943
3908.504,0.318875
3917.305,0.319962
3926.146,0.320864
3935.027,0.321193
3943.948,0.3217971
3952.909,0.322311
3961.911,0.322774
3970.954,0.323592
3980.038,0.324192
3989.163,0.324422
3998.33,0.324638
4007.54,0.324525
4016.791,0.3248177
4026.086,0.325059
4035.423,0.32522
4044.804,0.325254
4054.228,0.325708
4063.695,0.326199
4073.207,0.3265313
4082.764,0.326659
4092.365,0.327353
4102.012,0.327991
4111.703,0.329258
4121.441,0.3303921
4131.224,0.331225
4141.054,0.332653
4150.931,0.333986
4160.854,0.335745
4170.826,0.336644
4180.844,0.337863
4190.911,0.340744
4201.026,0.351299
4211.19,0.377678
4221.404,0.411603
4231.666,0.438568
4241.979,0.444617
4252.341,0.412961
4262.754,0.401981
4273.219,0.426754
4283.734,0.426647
4294.301,0.424932
4304.92,0.417418
4315.592,0.406772
4326.317,0.3962741
4337.095,0.388397
4347.926,0.383899
4358.811,0.382381
4369.751,0.382792
4380.746,0.383844
4391.796,0.38701
4402.902,0.390236
4414.064,0.393152
4425.282,0.39578
4436.558,0.398591
4447.891,0.400912
4459.281,0.403402
4470.73,0.4059776
4482.238,0.408061
4493.805,0.410554
4505.431,0.412731
4517.118,0.41509
4528.865,0.4179794
4540.674,0.42092
4552.543,0.422761
4564.475,0.425541
4576.47,0.428491
4588.527,0.431331
4600.648,0.433801
4612.833,0.436486
4625.082,0.439649
4637.397,0.4427996
4649.777,0.44514
4662.223,0.448641
4674.735,0.451717
4687.315,0.455671
4699.962,0.459016
4712.678,0.462679
4725.463,0.466285
4738.316,0.469466
4751.24,0.473281
4764.234,0.477073
4777.299,0.481516
4790.436,0.485442
4803.645,0.487371
4816.927,0.490519
4830.283,0.49363
4843.712,0.498315
4857.216,0.500138
4870.795,0.5031062
4884.451,0.506088
4898.182,0.5099253
4911.991,0.510942
4925.878,0.513089
4939.844,0.515945
4953.888,0.521412
4968.013,0.521435
4982.218,0.522828
4996.504,0.52528
5010.872,0.529391
5025.323,0.535965
5039.857,0.533242
5054.475,0.535807
5069.179,0.538997
5083.967,0.546465
5098.842,0.5455485
5113.804,0.548855
5128.854,0.551094
5143.992,0.562745
5159.22,0.558143
5174.538,0.559779
5189.947,0.564113
5205.448,0.576195
5221.041,0.573325
5236.728,0.574351
5252.51,0.571784
5268.386,0.5749309
5284.358,0.581811
5300.428,0.581772
5316.595,0.57969
5332.86,0.582139
5349.226,0.608451
5365.692,0.591755
5382.259,0.593065
5398.928,0.597156
5415.701,0.624711
5432.579,0.619353
5449.561,0.621672
5466.65,0.654972
5483.846,0.655598
5501.15,0.663229
5518.564,0.705138
5536.087,0.761924
5553.723,0.8967181
5571.47,0.593682
5589.332,0.426213
5607.307,0.455205
5625.399,0.494753
5643.607,0.530602
5661.934,0.5363
5680.379,0.552496
5698.945,0.558401
5717.633,0.577711
5736.443,0.579363
5755.377,0.591027
5774.436,0.596785
5793.621,0.582274
5812.934,0.608321
5832.376,0.610956
5851.948,0.606359
5871.652,0.634213
5891.488,0.6401682
5911.459,0.614151
5931.565,0.649619
5951.809,0.629459
5972.19,0.642531
5992.711,0.641393
6013.374,0.634904
6034.179,0.649414
6055.129,0.671873
6076.224,0.659293
6097.466,0.653659
6118.857,0.662287
6140.398,0.65715
6162.091,0.6644483
6183.938,0.674565
6205.94,0.662346
6228.099,0.66637
6250.416,0.6686813
6272.893,0.673987
6295.533,0.675412
6318.336,0.680452
6341.304,0.704499
6364.44,0.705334
6387.745,0.704301
6411.221,0.755279
6434.869,0.71806
6458.693,0.7193589
6482.693,0.762569
6506.872,0.735417
6531.231,0.731282
6555.774,0.7534734
6580.501,0.759131
6605.415,0.74694
6630.518,0.778545
6655.812,0.740633
6681.3,0.74746
6706.983,0.757543
6732.864,0.738679
6758.945,0.745749
6785.229,0.766192
6811.718,0.748406
6838.413,0.756765
6865.319,0.770499
6892.437,0.7505093
6919.769,0.744868
6947.319,0.761787
6975.089,0.756843
7003.081,0.756612
7031.298,0.771255
7059.743,0.7622928
7088.419,0.759318
7117.329,0.765735
7146.475,0.77883
7175.86,0.77336
7205.487,0.7771701
7235.36,0.7735
7265.481,0.783517
7295.854,0.780166
7326.481,0.789141
7357.366,0.784031
7388.512,0.784253
7419.922,0.785747
7451.601,0.795502
7483.55,0.791978
7515.774,0.792058
7548.277,0.79494
7581.061,0.799413
7614.131,0.800112
7647.491,0.800987
7681.143,0.802587
7715.093,0.804095
7749.343,0.805819
7783.899,0.806641
7818.764,0.808112
7853.942,0.810518
7889.437,0.812283
7925.254,0.814901
7961.398,0.816159
7997.872,0.818087
8034.682,0.820379
8071.832,0.822307
8109.326,0.823939
8147.169,0.8256601
8185.368,0.826868
8223.925,0.827761
8262.847,0.828342
8302.139,0.8290412
8341.805,0.830131
8381.852,0.831469
8422.285,0.832755
8463.109,0.833319
8504.331,0.833954
8545.955,0.83467
8587.989,0.835322
8630.437,0.836485
8673.307,0.837716
8716.604,0.838719
8760.335,0.8395
8804.507,0.840639
8849.125,0.84167
8894.198,0.842538
8939.732,0.84316
8985.733,0.84364
9032.21,0.844521
9079.17,0.845035
9126.62,0.845708
9174.568,0.845869
9223.022,0.846317
9271.99,0.847122
9321.48,0.847877
9371.5,0.84892
9422.06,0.849955
9473.167,0.850995
9524.832,0.85163
9577.062,0.852387
9629.868,0.853034
9683.259,0.853821
9737.244,0.8549907
9791.834,0.856315
9847.039,0.857643
9902.869,0.858492
9959.336,0.859286
10016.449,0.860151
10074.221,0.8609
10132.662,0.861601
10191.784,0.862605
10251.6,0.863526
10312.121,0.864322
10373.36,0.86515
10435.331,0.865876
10498.045,0.866624
10561.517,0.86712
10625.761,0.8675
10690.79,0.867968
10756.619,0.8678
10823.264,0.8674856
10890.738,0.867128
10959.058,0.8667919
11028.24,0.866086
11098.301,0.865454
11169.256,0.865495
11241.124,0.865598
11313.921,0.865927
11387.667,0.867051
11462.38,0.86815
11538.079,0.869383
11614.783,0.869912
11692.513,0.870473
11771.29,0.870831
11851.134,0.87116
11932.068,0.871529
12014.114,0.87213
12097.296,0.871534
12181.636,0.870529
12267.16,0.871224
12353.892,0.87208
12441.859,0.872597
12531.086,0.872954
12621.601,0.873135
12713.432,0.872869
12806.608,0.873058
12901.159,0.873785
12997.116,0.873353
13094.51,0.873184
13193.373,0.872972
13293.74,0.872743
13395.644,0.87301
13499.121,0.873319
13604.208,0.873028
13710.943,0.87369
13819.365,0.8736887
13929.515,0.87219
14041.433,0.870893
14155.163,0.868854
14270.749,0.865834
14388.237,0.860695
14507.674,0.856398
14629.109,0.847445
14752.594,0.835112
14878.179,0.822836
15005.92,0.7999811
15135.871,0.763416
15268.092,0.715559
15402.642,0.645902
15539.583,0.570634
15678.979,0.48431
15820.897,0.411511
15965.407,0.35514