File: csv_library/FTIR_LNR_3_2.csv
Database of Origin,University of Winnipeg Spectrophotometer Facility
Sample Description,Lunar samples/ analogues and glasses - D and P 102F FTIR spectra (from PSF) NASA Apollo lunar samples
Other Information,diffuse gold puck 100 spectra averaged
Date Added,2018-07-23 21:03:11.3623

Data ID,FTIR_LNR_3_2
Sample ID,apollo 15 ID# 15041 64 20
Grain Size,<1mm?
Viewing Geometry,i=30/ e=0
Resolution,3 cm-1
Composition,regolith sample

Wavelength
2.001142,0.196942
2.003474,0.197309
2.005812,0.197104
2.008155,0.197129
2.010504,0.196177
2.012858,0.197077
2.015217,0.19765
2.017582,0.197526
2.019952,0.197576
2.022328,0.197332
2.024709,0.197664
2.027096,0.198458
2.029488,0.198459
2.031886,0.198907
2.034289,0.199005
2.036698,0.1989
2.039113,0.200487
2.041533,0.200332
2.043959,0.200212
2.046391,0.200817
2.048828,0.201107
2.051271,0.20175
2.05372,0.201549
2.056175,0.202191
2.058635,0.202288
2.061101,0.202489
2.063573,0.203363
2.066051,0.203744
2.068534,0.203516
2.071024,0.2046
2.073519,0.205004
2.07602,0.204887
2.078528,0.205468
2.081041,0.205189
2.08356,0.206423
2.086085,0.206172
2.088617,0.206559
2.091154,0.206071
2.093697,0.206535
2.096247,0.207745
2.098803,0.207619
2.101364,0.207531
2.103932,0.207823
2.106506,0.207805
2.109087,0.208458
2.111673,0.208838
2.114266,0.209108
2.116865,0.208793
2.119471,0.210283
2.122082,0.209672
2.1247,0.210886
2.127325,0.211046
2.129956,0.212104
2.132593,0.211326
2.135237,0.212019
2.137887,0.211598
2.140544,0.212138
2.143207,0.212254
2.145876,0.212184
2.148553,0.213347
2.151235,0.213288
2.153925,0.213746
2.156621,0.214083
2.159324,0.214585
2.162033,0.215264
2.164749,0.21625
2.167472,0.215962
2.170202,0.217449
2.172938,0.217031
2.175682,0.217345
2.178432,0.218249
2.181189,0.217873
2.183952,0.218283
2.186723,0.219
2.189501,0.220046
2.192285,0.218902
2.195077,0.220163
2.197876,0.220853
2.200682,0.220591
2.203494,0.22162
2.206314,0.221728
2.209141,0.222068
2.211975,0.22243
2.214817,0.22266
2.217665,0.222763
2.220521,0.223754
2.223384,0.22333
2.226254,0.223232
2.229132,0.223861
2.232017,0.224077
2.23491,0.223837
2.237809,0.224359
2.240717,0.225038
2.243631,0.226313
2.246554,0.226491
2.249483,0.226921
2.252421,0.226556
2.255365,0.227191
2.258318,0.228265
2.261278,0.227227
2.264246,0.227595
2.267221,0.22871
2.270204,0.228402
2.273195,0.228514
2.276194,0.228708
2.279201,0.228927
2.282215,0.22941
2.285237,0.230117
2.288268,0.230149
2.291306,0.230232
2.294352,0.231721
2.297406,0.231396
2.300468,0.230842
2.303539,0.232375
2.306617,0.233019
2.309703,0.232055
2.312798,0.233141
2.315901,0.232951
2.319012,0.233147
2.322131,0.233751
2.325259,0.233704
2.328395,0.233608
2.33154,0.234743
2.334692,0.2348
2.337854,0.235101
2.341023,0.235669
2.344201,0.236062
2.347388,0.236352
2.350583,0.236597
2.353787,0.237602
2.357,0.237363
2.360221,0.237787
2.363451,0.237758
2.36669,0.238755
2.369937,0.238682
2.373194,0.238608
2.376459,0.239091
2.379733,0.239671
2.383016,0.240381
2.386308,0.240752
2.389609,0.241154
2.392919,0.241413
2.396238,0.240989
2.399566,0.241592
2.402903,0.241763
2.40625,0.242485
2.409606,0.243507
2.412971,0.243276
2.416345,0.243718
2.419729,0.244042
2.423122,0.244346
2.426524,0.2447
2.429936,0.244558
2.433358,0.245194
2.436789,0.245595
2.440229,0.245658
2.443679,0.24708
2.447139,0.246103
2.450609,0.247402
2.454088,0.24767
2.457577,0.248412
2.461076,0.248906
2.464585,0.249231
2.468104,0.250178
2.471632,0.250534
2.475171,0.250651
2.47872,0.250991
2.482278,0.251365
2.485847,0.251976
2.489427,0.252094
2.493016,0.25311
2.496615,0.253439
2.500225,0.25386
2.503845,0.253746
2.507476,0.254548
2.511117,0.254941
2.514769,0.25647
2.518431,0.256859
2.522103,0.257454
2.525787,0.257942
2.52948,0.257858
2.533185,0.258616
2.5369,0.259674
2.540627,0.259075
2.544364,0.259728
2.548112,0.260983
2.55187,0.2629387
2.55564,0.260032
2.559421,0.262573
2.563213,0.26635
2.567016,0.261401
2.570831,0.262534
2.574656,0.264724
2.578493,0.263458
2.582342,0.26831
2.586201,0.266611
2.590072,0.265124
2.593955,0.27995
2.597849,0.264752
2.601755,0.267849
2.605672,0.273579
2.609601,0.268745
2.613542,0.266586
2.617495,0.273139
2.621459,0.272576
2.625435,0.272559
2.629424,0.274116
2.633424,0.270929
2.637437,0.268782
2.641461,0.270478
2.645498,0.271904
2.649547,0.269795
2.653609,0.273503
2.657682,0.271472
2.661768,0.273345
2.665867,0.285165
2.669978,0.285223
2.674102,0.27249
2.678238,0.27896
2.682387,0.272978
2.686549,0.273987
2.690724,0.271795
2.694911,0.277899
2.699112,0.271487
2.703325,0.271993
2.707552,0.270934
2.711791,0.275517
2.716044,0.268094
2.72031,0.276815
2.724589,0.271025
2.728882,0.261751
2.733188,0.2601
2.737508,0.258082
2.741841,0.26151
2.746188,0.254903
2.750549,0.253958
2.754923,0.257463
2.759311,0.249957
2.763713,0.252982
2.768129,0.251613
2.772559,0.250821
2.777003,0.249613
2.781461,0.249842
2.785934,0.248951
2.79042,0.247821
2.794922,0.247178
2.799437,0.246876
2.803967,0.251007
2.808512,0.24773
2.813071,0.247147
2.817645,0.246725
2.822233,0.248829
2.826837,0.248386
2.831455,0.247994
2.836089,0.249517
2.840737,0.2484751
2.845401,0.248685
2.85008,0.249759
2.854774,0.250303
2.859484,0.249806
2.864209,0.25003
2.868949,0.249973
2.873705,0.25099
2.878477,0.249957
2.883265,0.24971
2.888068,0.250543
2.892887,0.250778
2.897723,0.25055
2.902574,0.250816
2.907441,0.250572
2.912325,0.251037
2.917225,0.252524
2.922142,0.251681
2.927075,0.251251
2.932024,0.251727
2.93699,0.252146
2.941973,0.252068
2.946973,0.253279
2.951989,0.252078
2.957023,0.253569
2.962073,0.252495
2.967141,0.25318
2.972226,0.252808
2.977328,0.254797
2.982448,0.254009
2.987586,0.253781
2.99274,0.255611
2.997913,0.255982
3.003103,0.257235
3.008312,0.25665
3.013538,0.256943
3.018782,0.257319
3.024044,0.258021
3.029325,0.259157
3.034624,0.261672
3.039942,0.260632
3.045278,0.261711
3.050632,0.261377
3.056006,0.26186
3.061398,0.26259
3.066809,0.263837
3.072239,0.263332
3.077689,0.263672
3.083157,0.26472
3.088645,0.266122
3.094153,0.265979
3.099679,0.266786
3.105226,0.266183
3.110792,0.266543
3.116378,0.266938
3.121985,0.267131
3.127611,0.267453
3.133257,0.267718
3.138924,0.26788
3.144611,0.268869
3.150319,0.268693
3.156047,0.269428
3.161796,0.270127
3.167566,0.270589
3.173356,0.271089
3.179168,0.271892
3.185001,0.271931
3.190856,0.272499
3.196731,0.273647
3.202629,0.273808
3.208548,0.273732
3.214488,0.276309
3.220451,0.276133
3.226436,0.276388
3.232443,0.27611
3.238472,0.277196
3.244523,0.278125
3.250598,0.278899
3.256694,0.280374
3.262814,0.278882
3.268956,0.279647
3.275122,0.279711
3.28131,0.280142
3.287522,0.281092
3.293757,0.281267
3.300016,0.281807
3.306299,0.282255
3.312605,0.282534
3.318936,0.283487
3.32529,0.283984
3.331669,0.286251
3.338072,0.284623
3.344499,0.285388
3.350952,0.28635
3.357429,0.285963
3.363931,0.286817
3.370458,0.286058
3.37701,0.286043
3.383588,0.287243
3.390191,0.288785
3.39682,0.28983
3.403475,0.289589
3.410156,0.289514
3.416862,0.28912
3.423596,0.292073
3.430355,0.292902
3.437141,0.294411
3.443954,0.29699
3.450794,0.295216
3.457661,0.296031
3.464556,0.297903
3.471477,0.2975
3.478426,0.298561
3.485403,0.299629
3.492408,0.302458
3.499441,0.301644
3.506502,0.303139
3.513592,0.304611
3.52071,0.305436
3.527857,0.306007
3.535032,0.30878
3.542237,0.308225
3.549471,0.309425
3.556735,0.310629
3.564028,0.311729
3.571351,0.313231
3.578704,0.314364
3.586088,0.3161247
3.593501,0.316589
3.600946,0.318462
3.608421,0.319017
3.615926,0.320417
3.623463,0.321201
3.631032,0.321914
3.638632,0.323235
3.646263,0.324335
3.653927,0.326103
3.661623,0.327115
3.669351,0.329224
3.677111,0.33135
3.684905,0.333325
3.692731,0.334747
3.70059,0.336698
3.708483,0.338206
3.716409,0.340439
3.72437,0.341059
3.732364,0.342607
3.740392,0.344411
3.748455,0.346189
3.756553,0.347145
3.764685,0.3488
3.772853,0.350289
3.781056,0.352535
3.789294,0.354336
3.797568,0.356438
3.805879,0.358442
3.814225,0.361062
3.822609,0.362741
3.831029,0.364452
3.839486,0.366148
3.84798,0.368589
3.856512,0.369435
3.865081,0.3711
3.873689,0.372789
3.882334,0.374354
3.891019,0.375708
3.899742,0.377905
3.908504,0.379678
3.917305,0.382023
3.926146,0.383979
3.935027,0.386037
3.943948,0.388448
3.952909,0.390972
3.961911,0.393195
3.970954,0.395734
3.980038,0.398298
3.989163,0.399847
3.99833,0.401891
4.00754,0.403465
4.016791,0.405592
4.026086,0.408294
4.035423,0.411158
4.044804,0.413386
4.054228,0.417354
4.063695,0.419895
4.073207,0.423758
4.082764,0.426828
4.092365,0.429731
4.102012,0.432867
4.111703,0.436685
4.121441,0.439609
4.131224,0.442497
4.141054,0.446382
4.150931,0.450355
4.160854,0.454083
4.170826,0.45798
4.180844,0.461636
4.190911,0.465961
4.201026,0.470595
4.21119,0.476936
4.221404,0.483769
4.231666,0.489396
4.241979,0.493671
4.252341,0.495065
4.262754,0.498491
4.273219,0.503978
4.283734,0.509217
4.294301,0.513662
4.30492,0.51784
4.315592,0.521283
4.326317,0.52579
4.337095,0.529227
4.347926,0.534447
4.358811,0.540942
4.369751,0.545819
4.380746,0.55103
4.391796,0.556501
4.402902,0.563386
4.414064,0.568439
4.425282,0.574316
4.436558,0.579741
4.447891,0.585433
4.459281,0.589916
4.47073,0.595084
4.482238,0.599063
4.493805,0.603672
4.505431,0.608246
4.517118,0.611408
4.528865,0.613693
4.540674,0.616443
4.552543,0.622436
4.564475,0.625294
4.57647,0.630091
4.588527,0.634996
4.600648,0.637706
4.612833,0.641269
4.625082,0.644231
4.637397,0.64865
4.649777,0.652317
4.662223,0.657427
4.674735,0.662227
4.687315,0.666987
4.699962,0.671833
4.712678,0.677189
4.725463,0.682017
4.738316,0.686787
4.75124,0.692099
4.764234,0.697936
4.777299,0.702842
4.790436,0.707094
4.803645,0.711697
4.816927,0.715621
4.830283,0.718128
4.843712,0.720622
4.857216,0.724568
4.870795,0.7261
4.884451,0.726546
4.898182,0.7306
4.911991,0.731657
4.925878,0.733307
4.939844,0.735419
4.953888,0.737866
4.968013,0.739299
4.982218,0.741853
4.996504,0.74424
5.010872,0.746812
5.025323,0.749823
5.039857,0.751469
5.054475,0.753251
5.069179,0.755251
5.083967,0.759238
5.098842,0.759962
5.113804,0.762788
5.128854,0.765305
5.143992,0.768883
5.15922,0.769428
5.174538,0.771709
5.189947,0.774769
5.205448,0.779024
5.221041,0.780986
5.236728,0.784492
5.25251,0.785873
5.268386,0.78851
5.284358,0.791518
5.300428,0.793855
5.316595,0.796801
5.33286,0.800059
5.349226,0.811074
5.365692,0.810028
5.382259,0.817442
5.398928,0.827505
5.415701,0.847252
5.432579,0.862665
5.449561,0.900228
5.46665,0.987587
5.483846,0.0117064
5.50115,0.0175529
5.518564,0.700044
5.536087,0.339351
5.553723,0.442398
5.57147,0.50925
5.589332,0.55158
5.607307,0.583317
5.625399,0.605928
5.643607,0.622136
5.661934,0.637829
5.680379,0.651778
5.698945,0.664502
5.717633,0.674262
5.736443,0.683281
5.755377,0.691229
5.774436,0.698748
5.793621,0.704917
5.812934,0.713921
5.832376,0.719704
5.851948,0.724882
5.871652,0.733385
5.891488,0.736958
5.911459,0.739642
5.931565,0.747513
5.951809,0.748018
5.97219,0.751844
5.992711,0.756453
6.013374,0.758373
6.034179,0.761656
6.055129,0.763782
6.076224,0.768615
6.097466,0.769174
6.118857,0.772678
6.140398,0.775637
6.162091,0.779381
6.183938,0.786304
6.20594,0.788966
6.228099,0.793587
6.250416,0.796124
6.272893,0.800443
6.295533,0.804348
6.318336,0.805748
6.341304,0.812906
6.36444,0.815178
6.387745,0.81592
6.411221,0.828484
6.434869,0.825035
6.458693,0.82697
6.482693,0.835908
6.506872,0.833417
6.531231,0.837014
6.555774,0.843999
6.580501,0.848871
6.605415,0.85057
6.630518,0.86136
6.655812,0.8547
6.6813,0.860579
6.706983,0.865344
6.732864,0.863712
6.758945,0.866552
6.785229,0.872941
6.811718,0.870567
6.838413,0.870025
6.865319,0.877571
6.892437,0.876588
6.919769,0.876973
6.947319,0.882295
6.975089,0.88186
7.003081,0.88423
7.031298,0.889598
7.059743,0.889419
7.088419,0.891877
7.117329,0.894508
7.146475,0.898356
7.17586,0.899407
7.205487,0.904047
7.23536,0.904929
7.265481,0.9088
7.295854,0.909221
7.326481,0.913692
7.357366,0.914043
7.388512,0.915893
7.419922,0.918715
7.451601,0.92262
7.48355,0.923884
7.515774,0.925661
7.548277,0.927961
7.581061,0.930019
7.614131,0.931382
7.647491,0.932582
7.681143,0.93423
7.715093,0.935979
7.749343,0.937689
7.783899,0.939817
7.818764,0.941919
7.853942,0.944189
7.889437,0.946446
7.925254,0.948299
7.961398,0.951536
7.997872,0.954262
8.034682,0.956718
8.071832,0.95869
8.109326,0.960173
8.147169,0.962209
8.185368,0.963531
8.223925,0.964939
8.262847,0.967026
8.302139,0.968863
8.341805,0.970883
8.381852,0.972628
8.422285,0.975486
8.463109,0.976361
8.504331,0.978043
8.545955,0.978681
8.587989,0.979687
8.630437,0.980173
8.673307,0.981645
8.716604,0.982117
8.760335,0.982881
8.804507,0.98526
8.849125,0.985808
8.894198,0.988002
8.939732,0.988952
8.985733,0.990536
9.03221,0.992192
9.07917,0.991979
9.12662,0.992756
9.174568,0.991224
9.223022,0.990925
9.27199,0.991056
9.32148,0.990514
9.3715,0.9915
9.42206,0.993871
9.473167,0.99393
9.524832,0.995978
9.577062,0.997696
9.629868,0.998924
9.683259,0.0100107
9.737244,0.0100193
9.791834,0.0100242
9.847039,0.0100204
9.902869,0.0100281
9.959336,0.0100326
10.0164,0.010032
10.0742,0.0100441
10.1327,0.0100474
10.1918,0.0100606
10.2516,0.0100726
10.3121,0.0100774
10.37336,0.0100889
10.4353,0.010096
10.498,0.0101031
10.5615,0.0101059
10.6258,0.0101047
10.69079,0.0100953
10.7566,0.0100863
10.8233,0.0100841
10.8907,0.0100711
10.9591,0.0100591
11.02824,0.0100649
11.0983,0.0100587
11.1693,0.0100651
11.2411,0.0100681
11.3139,0.0100715
11.3877,0.0100633
11.46238,0.010036
11.5381,0.0100406
11.6148,0.0100153
11.6925,0.0100016
11.77129,0.0100035
11.8511,0.999643
11.9321,0.999104
12.0141,0.0100019
12.0973,0.999014
12.1816,0.999141
12.26716,0.998262
12.3539,0.998529
12.4419,0.998485
12.5311,0.997676
12.6216,0.997003
12.7134,0.996521
12.8066,0.997043
12.9012,0.994781
12.9971,0.993483
13.09451,0.992141
13.1934,0.991578
13.29374,0.992243
13.3956,0.992798
13.4991,0.992442
13.6042,0.988319
13.7109,0.988695
13.8194,0.987324
13.9295,0.984039
14.0414,0.978719
14.1552,0.975351
14.2707,0.968206
14.3882,0.96147
14.5077,0.950213
14.6291,0.938599
14.7526,0.922757
14.8782,0.907139
15.00592,0.870696
15.1359,0.833699
15.2681,0.77501
15.4026,0.709166
15.5396,0.625243
15.679,0.501128
15.8209,0.415216
15.9654,0.347749