File: csv_library/FTIR_PYX_16.csv
Database of Origin,University of Winnipeg Spectrophotometer Facility
Sample Description,"HOSERLab master pyroxenes, FTIR data"
Date Added,2016-12-14 03:34:50.0019

Data ID,FTIR_PYX_16
Sample ID,PYX119
Mineral Name,Orthopyroxene
Grain Size,<45 um
Viewing Geometry,"i=30, e=0"
Material Class,Inosilicate

Wavelength
2000.56,0.343614
2002.307,0.34325
2004.058,0.3435
2005.812,0.344106
2007.569,0.344541
2009.329,0.345263
2011.092,0.345473
2012.858,0.345816
2014.627,0.346269
2016.399,0.346446
2018.174,0.347259
2019.952,0.347188
2021.733,0.347388
2023.518,0.347602
2025.305,0.348331
2027.096,0.348588
2028.89,0.348678
2030.686,0.349191
2032.486,0.349751
2034.289,0.350655
2036.096,0.350504
2037.905,0.350465
2039.718,0.351082
2041.533,0.351472
2043.352,0.351557
2045.174,0.352048
2047.0,0.35261
2048.828,0.352767
2050.66,0.353021
2052.495,0.353482
2054.333,0.353133
2056.175,0.353549
2058.019,0.354014
2059.867,0.354543
2061.718,0.35469
2063.573,0.354865
2065.431,0.355026
2067.292,0.355609
2069.156,0.355487
2071.024,0.3558053
2072.895,0.356801
2074.769,0.357492
2076.647,0.357571
2078.528,0.357519
2080.412,0.358396
2082.3,0.35929
2084.191,0.3595612
2086.085,0.359902
2087.983,0.3603333
2089.885,0.360583
2091.789,0.361069
2093.697,0.361451
2095.609,0.361655
2097.524,0.361648
2099.443,0.361961
2101.364,0.36239
2103.29,0.362383
2105.219,0.36232
2107.151,0.362194
2109.087,0.3623553
2111.026,0.362559
2112.969,0.362283
2114.915,0.362543
2116.865,0.362881
2118.819,0.363783
2120.776,0.364441
2122.736,0.36451
2124.7,0.36472
2126.668,0.36543
2128.64,0.365688
2130.614,0.365657
2132.593,0.36606
2134.575,0.366689
2136.561,0.366846
2138.55,0.367131
2140.544,0.368186
2142.54,0.3683557
2144.541,0.368294
2146.545,0.368807
2148.553,0.369106
2150.564,0.36931
2152.579,0.369537
2154.598,0.370274
2156.621,0.37081
2158.647,0.371193
2160.678,0.371647
2162.712,0.372151
2164.749,0.3728951
2166.791,0.372972
2168.836,0.373474
2170.885,0.374348
2172.938,0.37384
2174.995,0.373935
2177.056,0.374377
2179.12,0.374989
2181.189,0.374797
2183.261,0.375216
2185.337,0.376247
2187.417,0.376516
2189.501,0.377194
2191.589,0.37735
2193.68,0.377292
2195.776,0.377871
2197.876,0.378517
2199.979,0.378814
2202.087,0.379147
2204.199,0.379406
2206.314,0.379746
2208.434,0.3802798
2210.557,0.380757
2212.685,0.380766
2214.817,0.381381
2216.952,0.381474
2219.092,0.381432
2221.236,0.381644
2223.384,0.381617
2225.536,0.381942
2227.692,0.381835
2229.853,0.381923
2232.017,0.381535
2234.186,0.3809761
2236.359,0.381212
2238.536,0.381696
2240.717,0.380991
2242.902,0.380294
2245.092,0.380243
2247.285,0.380378
2249.483,0.380723
2251.686,0.381471
2253.892,0.381896
2256.103,0.382346
2258.318,0.382543
2260.537,0.382862
2262.761,0.382834
2264.989,0.382492
2267.221,0.3820361
2269.458,0.381842
2271.699,0.382104
2273.944,0.3825031
2276.194,0.382502
2278.448,0.382546
2280.707,0.382645
2282.97,0.382871
2285.237,0.382498
2287.509,0.382431
2289.786,0.3822445
2292.067,0.381471
2294.352,0.381632
2296.642,0.381296
2298.936,0.380817
2301.235,0.380982
2303.539,0.380922
2305.847,0.380684
2308.159,0.380539
2310.476,0.379942
2312.798,0.379521
2315.124,0.379287
2317.455,0.379182
2319.791,0.378917
2322.131,0.379258
2324.476,0.379852
2326.826,0.380633
2329.18,0.381256
2331.54,0.381876
2333.903,0.38256
2336.272,0.383505
2338.645,0.385132
2341.023,0.386581
2343.406,0.387514
2345.794,0.388568
2348.186,0.389235
2350.583,0.390487
2352.986,0.39123
2355.393,0.392055
2357.804,0.392177
2360.221,0.392166
2362.643,0.392341
2365.069,0.392239
2367.501,0.392211
2369.937,0.391982
2372.379,0.391189
2374.825,0.3908655
2377.276,0.390839
2379.733,0.3914051
2382.194,0.391559
2384.661,0.392406
2387.132,0.392989
2389.609,0.393347
2392.09,0.39396
2394.577,0.39461
2397.069,0.395384
2399.566,0.3961
2402.068,0.397056
2404.575,0.397659
2407.088,0.398166
2409.606,0.398709
2412.128,0.398975
2414.657,0.399479
2417.19,0.400206
2419.729,0.400847
2422.272,0.401033
2424.822,0.4011016
2427.376,0.4014367
2429.936,0.4018758
2432.501,0.401942
2435.072,0.402464
2437.648,0.402648
2440.229,0.402607
2442.816,0.402952
2445.408,0.403455
2448.006,0.403997
2450.609,0.404615
2453.217,0.4046162
2455.831,0.405358
2458.451,0.405945
2461.076,0.405983
2463.707,0.406506
2466.343,0.407025
2468.985,0.407275
2471.632,0.4076326
2474.285,0.407944
2476.944,0.4079726
2479.608,0.407662
2482.278,0.4079276
2484.954,0.4085543
2487.636,0.408614
2490.323,0.4089064
2493.016,0.408729
2495.715,0.409393
2498.419,0.409515
2501.129,0.4095397
2503.845,0.409774
2506.567,0.410301
2509.295,0.4103547
2512.029,0.4109941
2514.769,0.411218
2517.514,0.4113494
2520.266,0.411857
2523.023,0.41271
2525.787,0.412684
2528.556,0.413396
2531.331,0.413551
2534.113,0.413546
2536.9,0.414617
2539.694,0.415349
2542.494,0.414943
2545.3,0.415138
2548.112,0.415812
2550.93,0.416636
2553.754,0.416448
2556.585,0.416096
2559.421,0.416128
2562.264,0.416714
2565.113,0.417057
2567.969,0.417761
2570.831,0.417729
2573.699,0.418033
2576.573,0.41845
2579.454,0.419173
2582.342,0.419467
2585.235,0.419562
2588.135,0.4199715
2591.042,0.421129
2593.955,0.425863
2596.874,0.421658
2599.8,0.421427
2602.733,0.423098
2605.672,0.423739
2608.618,0.422388
2611.57,0.421541
2614.529,0.423166
2617.495,0.424491
2620.467,0.424318
2623.446,0.4235271
2626.431,0.424618
2629.424,0.425914
2632.423,0.42506
2635.429,0.423752
2638.442,0.423872
2641.461,0.423842
2644.488,0.424504
2647.521,0.424156
2650.561,0.42445
2653.609,0.424375
2656.663,0.423787
2659.724,0.422973
2662.792,0.423181
2665.867,0.425103
2668.949,0.423796
2672.038,0.417453
2675.135,0.411982
2678.238,0.400209
2681.349,0.381706
2684.467,0.361899
2687.591,0.33797
2690.724,0.316844
2693.863,0.30267
2697.01,0.28028
2700.164,0.260912
2703.325,0.246102
2706.494,0.233319
2709.67,0.22745
2712.853,0.212719
2716.044,0.203039
2719.242,0.211945
2722.448,0.2152063
2725.661,0.208711
2728.882,0.200515
2732.111,0.1985286
2735.347,0.198356
2738.59,0.199031
2741.841,0.199661
2745.1,0.197244
2748.367,0.198338
2751.641,0.199933
2754.923,0.202004
2758.213,0.2020948
2761.51,0.203363
2764.816,0.203816
2768.129,0.2052145
2771.45,0.2059339
2774.779,0.206954
2778.116,0.207883
2781.461,0.208033
2784.814,0.208519
2788.175,0.208151
2791.544,0.208986
2794.922,0.208342
2798.307,0.20827
2801.7,0.207331
2805.102,0.206287
2808.512,0.207631
2811.93,0.208
2815.356,0.20809
2818.791,0.208089
2822.233,0.208039
2825.685,0.209069
2829.144,0.209015
2832.612,0.208739
2836.089,0.2086937
2839.574,0.208718
2843.067,0.20918
2846.569,0.20953
2850.08,0.209754
2853.599,0.210049
2857.127,0.210257
2860.664,0.211101
2864.209,0.211611
2867.763,0.211098
2871.325,0.210783
2874.897,0.2107595
2878.477,0.210741
2882.066,0.211429
2885.664,0.211605
2889.271,0.212166
2892.887,0.21179
2896.512,0.210768
2900.146,0.209985
2903.789,0.209869
2907.441,0.210511
2911.103,0.210951
2914.773,0.211135
2918.453,0.2118
2922.142,0.210363
2925.84,0.2098523
2929.547,0.209543
2933.264,0.209698
2936.99,0.210454
2940.726,0.210507
2944.471,0.210488
2948.225,0.212114
2951.989,0.2115246
2955.763,0.212417
2959.546,0.211418
2963.339,0.211635
2967.141,0.212185
2970.953,0.212058
2974.775,0.213991
2978.607,0.214744
2982.448,0.214218
2986.3,0.214559
2990.161,0.215697
2994.032,0.216635
2997.913,0.216552
3001.804,0.2182786
3005.705,0.218852
3009.616,0.2189115
3013.538,0.220097
3017.469,0.221096
3021.411,0.2214577
3025.363,0.221968
3029.325,0.224349
3033.298,0.226855
3037.281,0.225536
3041.274,0.226065
3045.278,0.227577
3049.292,0.227573
3053.317,0.227883
3057.352,0.228894
3061.398,0.230308
3065.455,0.2319
3069.522,0.231553
3073.6,0.232066
3077.689,0.233426
3081.788,0.234572
3085.899,0.235611
3090.02,0.236275
3094.153,0.236472
3098.296,0.238093
3102.45,0.239261
3106.616,0.2386229
3110.792,0.2392208
3114.98,0.240124
3119.179,0.2412355
3123.389,0.242339
3127.611,0.243352
3131.844,0.24426
3136.088,0.245406
3140.344,0.246806
3144.611,0.248159
3148.89,0.2493219
3153.18,0.250506
3157.482,0.25159
3161.796,0.252451
3166.121,0.254243
3170.458,0.2557725
3174.807,0.25725
3179.168,0.259908
3183.541,0.261181
3187.926,0.261107
3192.323,0.263175
3196.731,0.264829
3201.152,0.265188
3205.585,0.266544
3210.031,0.267664
3214.488,0.271714
3218.958,0.273268
3223.441,0.2725
3227.936,0.273664
3232.443,0.273954
3236.963,0.275901
3241.495,0.277047
3246.04,0.279202
3250.598,0.281194
3255.168,0.2838303
3259.751,0.28479
3264.347,0.283785
3268.956,0.285422
3273.578,0.286356
3278.213,0.28714
3282.861,0.289343
3287.522,0.291018
3292.196,0.29226
3296.884,0.2947797
3301.585,0.294977
3306.299,0.296242
3311.026,0.296591
3315.767,0.297842
3320.522,0.299009
3325.29,0.3018
3330.072,0.304071
3334.867,0.302827
3339.676,0.303136
3344.499,0.304675
3349.336,0.305971
3354.187,0.306624
3359.052,0.306746
3363.931,0.308703
3368.824,0.309462
3373.731,0.309079
3378.652,0.308955
3383.588,0.310229
3388.538,0.312168
3393.502,0.313434
3398.481,0.315166
3403.475,0.316584
3408.483,0.317374
3413.506,0.316543
3418.543,0.317478
3423.596,0.320139
3428.663,0.321853
3433.745,0.3242707
3438.842,0.327794
3443.954,0.330808
3449.082,0.330118
3454.224,0.330948
3459.382,0.33235
3464.556,0.33427
3469.744,0.335002
3474.948,0.335699
3480.168,0.336593
3485.403,0.337982
3490.654,0.3411
3495.921,0.341518
3501.204,0.341662
3506.502,0.343363
3511.817,0.345485
3517.147,0.34741
3522.494,0.349799
3527.857,0.35125
3533.236,0.35452
3538.631,0.355779
3544.043,0.356099
3549.471,0.357144
3554.916,0.358374
3560.378,0.359614
3565.856,0.3608872
3571.351,0.362203
3576.863,0.362677
3582.392,0.364378
3587.938,0.365882
3593.501,0.366663
3599.082,0.3682821
3604.679,0.368525
3610.294,0.369773
3615.926,0.371655
3621.576,0.372801
3627.244,0.3738904
3632.929,0.375351
3638.632,0.37682
3644.353,0.377815
3650.091,0.379753
3655.848,0.380582
3661.623,0.381237
3667.416,0.382862
3673.227,0.3839367
3679.057,0.385756
3684.905,0.387352
3690.771,0.387788
3696.656,0.3885658
3702.56,0.389856
3708.483,0.3909144
3714.425,0.391967
3720.385,0.3932
3726.365,0.39426
3732.364,0.395848
3738.382,0.397466
3744.419,0.39951
3750.476,0.400741
3756.553,0.401787
3762.649,0.402579
3768.764,0.4035439
3774.9,0.404413
3781.056,0.405336
3787.231,0.406386
3793.427,0.40755
3799.643,0.408778
3805.879,0.409681
3812.135,0.410585
3818.412,0.411953
3824.71,0.413269
3831.029,0.41432
3837.368,0.415559
3843.728,0.416925
3850.109,0.418872
3856.512,0.420591
3862.935,0.422013
3869.38,0.422926
3875.846,0.4241679
3882.334,0.425266
3888.844,0.426581
3895.375,0.427926
3901.929,0.42891
3908.504,0.430144
3915.101,0.431814
3921.721,0.432739
3928.363,0.433755
3935.027,0.434872
3941.714,0.435964
3948.423,0.437006
3955.156,0.438136
3961.911,0.439705
3968.689,0.441576
3975.491,0.44352
3982.315,0.445482
3989.163,0.447032
3996.035,0.4484215
4002.93,0.449998
4009.849,0.45173
4016.791,0.452943
4023.758,0.454595
4030.749,0.456158
4037.764,0.457864
4044.804,0.459246
4051.867,0.460761
4058.956,0.462188
4066.069,0.463962
4073.207,0.46563
4080.371,0.4674
4087.559,0.469178
4094.773,0.47114
4102.012,0.473094
4109.276,0.474708
4116.566,0.476589
4123.882,0.478932
4131.224,0.4807912
4138.592,0.482738
4145.987,0.485151
4153.407,0.4871127
4160.854,0.489419
4168.328,0.491433
4175.829,0.493571
4183.356,0.496166
4190.911,0.49944
4198.493,0.505112
4206.102,0.516919
4213.739,0.53406
4221.404,0.551112
4229.096,0.564883
4236.816,0.573443
4244.565,0.572827
4252.341,0.557488
4260.146,0.5508807
4267.98,0.568956
4275.843,0.574543
4283.734,0.575844
4291.655,0.578036
4299.604,0.577414
4307.583,0.577149
4315.592,0.572718
4323.631,0.569393
4331.699,0.567819
4339.797,0.565739
4347.926,0.565689
4356.085,0.567402
4364.275,0.568604
4372.495,0.571156
4380.746,0.574176
4389.029,0.578618
4397.342,0.582671
4405.687,0.58622
4414.064,0.5902979
4422.472,0.594128
4430.913,0.597651
4439.386,0.601251
4447.891,0.603666
4456.428,0.606786
4464.998,0.609749
4473.602,0.6124816
4482.238,0.615275
4490.908,0.617322
4499.611,0.619301
4508.347,0.621995
4517.118,0.623421
4525.923,0.625636
4534.762,0.62796
4543.635,0.629872
4552.543,0.631961
4561.487,0.634888
4570.465,0.6367692
4579.478,0.638463
4588.527,0.6410108
4597.612,0.642829
4606.732,0.646187
4615.889,0.647444
4625.082,0.649026
4634.312,0.650263
4643.578,0.652389
4652.882,0.654486
4662.223,0.65681
4671.601,0.660232
4681.017,0.663728
4690.471,0.664559
4699.962,0.667957
4709.493,0.671966
4719.062,0.674388
4728.669,0.677095
4738.316,0.679807
4748.002,0.682051
4757.728,0.684915
4767.494,0.687362
4777.299,0.690163
4787.145,0.6925916
4797.032,0.694778
4806.959,0.696718
4816.927,0.700185
4826.937,0.701689
4836.988,0.702724
4847.081,0.705756
4857.216,0.709103
4867.393,0.7113176
4877.613,0.712476
4887.876,0.715046
4898.182,0.718797
4908.532,0.721196
4918.925,0.722072
4929.362,0.724953
4939.844,0.727639
4950.37,0.730514
4960.941,0.732871
4971.556,0.73422
4982.218,0.736736
4992.925,0.738221
5003.678,0.740808
5014.477,0.744528
5025.323,0.746982
5036.216,0.74715
5047.156,0.748789
5058.143,0.750421
5069.179,0.752056
5080.262,0.755772
5091.394,0.757013
5102.574,0.758041
5113.804,0.760301
5125.083,0.762098
5136.412,0.765854
5147.791,0.771319
5159.22,0.7707421
5170.7,0.773188
5182.231,0.776512
5193.814,0.782002
5205.448,0.788277
5217.134,0.790502
5228.873,0.790476
5240.665,0.794644
5252.51,0.796052
5264.408,0.799015
5276.36,0.803537
5288.367,0.80816
5300.428,0.808885
5312.544,0.809705
5324.715,0.812371
5336.942,0.816094
5349.226,0.825367
5361.566,0.821697
5373.962,0.821359
5386.417,0.822845
5398.928,0.824763
5411.498,0.831973
5424.127,0.838547
5436.814,0.8336903
5449.561,0.838359
5462.368,0.85212
5475.234,0.861
5488.162,0.865496
5501.15,0.872814
5514.2,0.901298
5527.312,0.938576
5540.486,0.973885
5553.723,0.881418
5567.023,0.6069442
5580.387,0.577238
5593.815,0.667956
5607.307,0.709342
5620.865,0.735278
5634.489,0.752751
5648.178,0.762024
5661.934,0.769509
5675.757,0.780933
5689.647,0.787877
5703.606,0.793552
5717.633,0.801367
5731.729,0.807032
5745.894,0.814671
5760.13,0.82321
5774.436,0.82563
5788.813,0.824978
5803.262,0.832179
5817.782,0.8439612
5832.376,0.8444226
5847.043,0.844647
5861.783,0.854792
5876.598,0.863711
5891.488,0.864252
5906.454,0.859124
5921.495,0.863908
5936.613,0.872717
5951.809,0.869022
5967.082,0.871256
5982.433,0.871598
5997.864,0.870681
6013.374,0.872502
6028.964,0.874175
6044.636,0.883234
6060.389,0.881479
6076.224,0.88146
6092.141,0.881265
6108.143,0.889598
6124.228,0.885703
6140.398,0.888056
6156.654,0.891798
6172.996,0.894745
6189.424,0.896501
6205.94,0.897467
6222.544,0.90006
6239.237,0.902294
6256.02,0.904072
6272.893,0.907125
6289.858,0.907752
6306.914,0.909747
6324.062,0.913386
6341.304,0.9168871
6358.64,0.919664
6376.071,0.920479
6393.598,0.921671
6411.221,0.928292
6428.941,0.924819
6446.759,0.925546
6464.676,0.92861
6482.693,0.932592
6500.81,0.9309973
6519.029,0.933867
6537.35,0.934553
6555.774,0.937064
6574.302,0.939183
6592.934,0.940646
6611.673,0.943261
6630.518,0.945785
6649.47,0.942484
6668.532,0.945364
6687.702,0.946317
6706.983,0.950338
6726.375,0.948937
6745.879,0.949747
6765.497,0.953237
6785.229,0.95387
6805.076,0.953349
6825.039,0.955483
6845.12,0.957383
6865.319,0.957411
6885.637,0.957894
6906.076,0.958923
6926.636,0.959105
6947.319,0.961095
6968.125,0.961904
6989.057,0.963823
7010.114,0.964943
7031.298,0.9666228
7052.611,0.967883
7074.052,0.96871
7095.625,0.970068
7117.329,0.971666
7139.166,0.973145
7161.137,0.973719
7183.244,0.9745404
7205.487,0.975997
7227.869,0.976905
7250.39,0.978443
7273.051,0.979436
7295.854,0.980769
7318.8,0.9819092
7341.891,0.982706
7365.128,0.983663
7388.512,0.985656
7412.045,0.9872202
7435.728,0.987906
7459.562,0.988984
7483.55,0.990141
7507.692,0.990847
7531.99,0.991697
7556.446,0.992639
7581.061,0.993162
7605.837,0.993274
7630.774,0.993783
7655.876,0.994106
7681.143,0.99521
7706.577,0.99582
7732.18,0.996285
7757.953,0.997466
7783.899,0.998206
7810.018,0.999285
7836.313,0.0100055
7862.786,0.0100197
7889.437,0.010035
7916.27,0.0100445
7943.285,0.0100575
7970.485,0.0100708
7997.872,0.0100853
8025.448,0.0100952
8053.214,0.0101047
8081.173,0.0101128
8109.326,0.0101204
8137.676,0.0101315
8166.224,0.0101407
8194.973,0.0101526
8223.925,0.0101627
8253.082,0.0101704
8282.446,0.0101814
8312.02,0.0101931
8341.805,0.0102054
8371.804,0.0102148
8402.02,0.0102242
8432.454,0.0102314
8463.109,0.0102405
8493.988,0.010249
8525.092,0.0102548
8556.425,0.0102605
8587.989,0.0102673
8619.786,0.0102716
8651.819,0.0102765
8684.091,0.0102833
8716.604,0.0102933
8749.361,0.010302
8782.365,0.0103095
8815.619,0.0103197
8849.125,0.0103325
8882.887,0.0103427
8916.907,0.010353
8951.188,0.0103621
8985.733,0.010366
9020.546,0.0103664
9055.629,0.0103636
9090.986,0.0103607
9126.62,0.0103591
9162.534,0.0103483
9198.731,0.0103402
9235.215,0.0103351
9271.99,0.0103325
9309.058,0.0103303
9346.423,0.0103285
9384.089,0.0103306
9422.06,0.0103363
9460.339,0.0103399
9498.929,0.0103469
9537.836,0.0103517
9577.062,0.010357
9616.612,0.0103617
9656.49,0.0103646
9696.699,0.0103703
9737.244,0.0103712
9778.129,0.0103686
9819.359,0.0103648
9860.938,0.0103641
9902.869,0.0103637
9945.159,0.0103634
9987.811,0.0103629
10030.83,0.0103667
10074.221,0.0103674
10117.988,0.0103693
10162.137,0.0103741
10206.672,0.0103813
10251.6,0.0103893
10296.924,0.0103938
10342.65,0.0103963
10388.784,0.0103994
10435.331,0.010401
10482.296,0.0103978
10529.686,0.0103979
10577.505,0.0104008
10625.761,0.0104048
10674.458,0.0104017
10723.604,0.0103977
10773.203,0.0104019
10823.264,0.0104037
10873.791,0.0104043
10924.791,0.0104069
10976.272,0.0104107
11028.24,0.0104162
11080.702,0.0104186
11133.665,0.0104182
11187.137,0.010416
11241.124,0.0104104
11295.634,0.0104075
11350.675,0.0104073
11406.254,0.0104015
11462.38,0.0103956
11519.06,0.0103907
11576.304,0.0103841
11634.118,0.0103783
11692.513,0.010378
11751.496,0.0103779
11811.077,0.0103747
11871.265,0.010377
11932.068,0.0103799
11993.497,0.0103809
12055.562,0.0103836
12118.271,0.0103834
12181.636,0.0103785
12245.667,0.0103756
12310.373,0.010374
12375.767,0.010369
12441.859,0.0103621
12508.659,0.0103642
12576.18,0.0103592
12644.434,0.0103524
12713.432,0.0103516
12783.187,0.0103525
12853.71,0.0103545
12925.016,0.0103561
12997.116,0.0103617
13070.025,0.0103713
13143.756,0.0103749
13218.322,0.0103784
13293.74,0.0103787
13370.021,0.010386
13447.183,0.0103893
13525.24,0.0103843
13604.208,0.0103763
13684.103,0.0103663
13764.941,0.0103537
13846.739,0.0103465
13929.515,0.0103454
14013.285,0.0103351
14098.068,0.01032734
14183.883,0.0103213
14270.749,0.0103082
14358.684,0.0103136
14447.709,0.0103077
14537.844,0.0102947
14629.109,0.0102872
14721.528,0.0102809
14815.121,0.010275
14909.91,0.0102355
15005.92,0.0102144
15103.173,0.0101856
15201.695,0.0101329
15301.509,0.0100277
15402.642,0.986021
15505.12,0.959957
15608.97,0.933754
15714.22,0.886303
15820.897,0.828901
15929.033,0.775646
15965.407,0.753996