File: csv_library/FTIR_LNR_3_3.csv
Database of Origin,University of Winnipeg Spectrophotometer Facility
Sample Description,Lunar samples/ analogues and glasses - D and P 102F FTIR spectra (from PSF) NASA Apollo lunar samples
Other Information,diffuse gold puck 100 spectra averaged
Date Added,2018-07-23 21:03:11.3862

Data ID,FTIR_LNR_3_3
Sample ID,apollo 16 ID# 61221 176 25
Grain Size,<1mm?
Viewing Geometry,i=30/ e=0
Resolution,3 cm-1
Composition,regolith sample

Wavelength
2.001142,0.189056
2.003474,0.188548
2.005812,0.189854
2.008155,0.188821
2.010504,0.18958
2.012858,0.189595
2.015217,0.190516
2.017582,0.189552
2.019952,0.190206
2.022328,0.189658
2.024709,0.190558
2.027096,0.190506
2.029488,0.19076
2.031886,0.19081
2.034289,0.191722
2.036698,0.191726
2.039113,0.192108
2.041533,0.192048
2.043959,0.192092
2.046391,0.192879
2.048828,0.192553
2.051271,0.193629
2.05372,0.193341
2.056175,0.19411
2.058635,0.194158
2.061101,0.194487
2.063573,0.195182
2.066051,0.195474
2.068534,0.19546
2.071024,0.196033
2.073519,0.196437
2.07602,0.196569
2.078528,0.196496
2.081041,0.197314
2.08356,0.197734
2.086085,0.19779
2.088617,0.198844
2.091154,0.198687
2.093697,0.199334
2.096247,0.1995621
2.098803,0.19976
2.101364,0.199461
2.103932,0.199487
2.106506,0.199595
2.109087,0.199781
2.111673,0.199437
2.114266,0.199766
2.116865,0.199808
2.119471,0.20089
2.122082,0.200496
2.1247,0.201579
2.127325,0.202122
2.129956,0.203034
2.132593,0.202546
2.135237,0.202655
2.137887,0.20252
2.140544,0.203129
2.143207,0.203486
2.145876,0.202811
2.148553,0.203898
2.151235,0.204148
2.153925,0.204574
2.156621,0.204624
2.159324,0.205181
2.162033,0.205877
2.164749,0.206049
2.167472,0.206409
2.170202,0.207249
2.172938,0.20766
2.175682,0.206996
2.178432,0.208423
2.181189,0.208436
2.183952,0.208449
2.186723,0.209283
2.189501,0.209315
2.192285,0.209851
2.195077,0.209461
2.197876,0.210207
2.200682,0.210794
2.203494,0.210822
2.206314,0.210989
2.209141,0.211766
2.211975,0.21164
2.214817,0.212026
2.217665,0.2133715
2.220521,0.213471
2.223384,0.213671
2.226254,0.214263
2.229132,0.213414
2.232017,0.214965
2.23491,0.214457
2.237809,0.214621
2.240717,0.215294
2.243631,0.216212
2.246554,0.21577
2.249483,0.21616
2.252421,0.216539
2.255365,0.216433
2.258318,0.216776
2.261278,0.217132
2.264246,0.217863
2.267221,0.217701
2.270204,0.218033
2.273195,0.218113
2.276194,0.218396
2.279201,0.21932
2.282215,0.219977
2.285237,0.219933
2.288268,0.22014
2.291306,0.221073
2.294352,0.220534
2.297406,0.220659
2.300468,0.220992
2.303539,0.22195
2.306617,0.222531
2.309703,0.222524
2.312798,0.222964
2.315901,0.223374
2.319012,0.223423
2.322131,0.222963
2.325259,0.223755
2.328395,0.224396
2.33154,0.224831
2.334692,0.225625
2.337854,0.225117
2.341023,0.225476
2.344201,0.226008
2.347388,0.226377
2.350583,0.226941
2.353787,0.226899
2.357,0.227001
2.360221,0.227031
2.363451,0.227003
2.36669,0.227889
2.369937,0.228444
2.373194,0.228271
2.376459,0.228781
2.379733,0.228816
2.383016,0.228897
2.386308,0.230112
2.389609,0.230061
2.392919,0.230247
2.396238,0.230047
2.399566,0.230751
2.402903,0.230642
2.40625,0.231567
2.409606,0.231338
2.412971,0.231667
2.416345,0.231922
2.419729,0.232293
2.423122,0.232237
2.426524,0.232641
2.429936,0.232486
2.433358,0.233818
2.436789,0.23367
2.440229,0.2340432
2.443679,0.235105
2.447139,0.234765
2.450609,0.235407
2.454088,0.235687
2.457577,0.235986
2.461076,0.23702
2.464585,0.237038
2.468104,0.237875
2.471632,0.238425
2.475171,0.238672
2.47872,0.239132
2.482278,0.239587
2.485847,0.239896
2.489427,0.240826
2.493016,0.242027
2.496615,0.242285
2.500225,0.243075
2.503845,0.243235
2.507476,0.243528
2.511117,0.243965
2.514769,0.245025
2.518431,0.245391
2.522103,0.246325
2.525787,0.246539
2.52948,0.246724
2.533185,0.247773
2.5369,0.249602
2.540627,0.24873
2.544364,0.250029
2.548112,0.251062
2.55187,0.253273
2.55564,0.250527
2.559421,0.252688
2.563213,0.257727
2.567016,0.251779
2.570831,0.254006
2.574656,0.256534
2.578493,0.254508
2.582342,0.2593
2.586201,0.257606
2.590072,0.256226
2.593955,0.270015
2.597849,0.254875
2.601755,0.257128
2.605672,0.263742
2.609601,0.258912
2.613542,0.257139
2.617495,0.264056
2.621459,0.263898
2.625435,0.262556
2.629424,0.264044
2.633424,0.260744
2.637437,0.258987
2.641461,0.260699
2.645498,0.262103
2.649547,0.259464
2.653609,0.26392
2.657682,0.261555
2.661768,0.264256
2.665867,0.27651
2.669978,0.275242
2.674102,0.262335
2.678238,0.269963
2.682387,0.262767
2.686549,0.264465
2.690724,0.261536
2.694911,0.268412
2.699112,0.260449
2.703325,0.2607011
2.707552,0.258632
2.711791,0.263449
2.716044,0.253108
2.72031,0.261015
2.724589,0.255236
2.728882,0.245059
2.733188,0.242239
2.737508,0.240957
2.741841,0.244839
2.746188,0.237035
2.750549,0.235689
2.754923,0.238481
2.759311,0.232379
2.763713,0.234867
2.768129,0.233124
2.772559,0.232865
2.777003,0.229745
2.781461,0.229977
2.785934,0.229949
2.79042,0.229486
2.794922,0.227719
2.799437,0.228087
2.803967,0.231654
2.808512,0.228707
2.813071,0.227568
2.817645,0.227845
2.822233,0.228731
2.826837,0.22849
2.831455,0.227678
2.836089,0.229746
2.840737,0.228638
2.845401,0.228482
2.85008,0.228516
2.854774,0.229291
2.859484,0.229038
2.864209,0.229354
2.868949,0.229182
2.873705,0.230053
2.878477,0.229263
2.883265,0.228868
2.888068,0.229938
2.892887,0.230069
2.897723,0.229972
2.902574,0.230157
2.907441,0.229806
2.912325,0.229853
2.917225,0.231517
2.922142,0.230466
2.927075,0.22993
2.932024,0.230696
2.93699,0.231302
2.941973,0.231019
2.946973,0.233316
2.951989,0.229642
2.957023,0.23289
2.962073,0.231197
2.967141,0.231562
2.972226,0.231642
2.977328,0.23477
2.982448,0.232178
2.987586,0.231829
2.99274,0.235113
2.997913,0.233449
3.003103,0.235298
3.008312,0.234213
3.013538,0.235155
3.018782,0.234623
3.024044,0.235432
3.029325,0.23702
3.034624,0.240261
3.039942,0.238368
3.045278,0.241054
3.050632,0.239337
3.056006,0.239553
3.061398,0.240543
3.066809,0.242926
3.072239,0.242016
3.077689,0.242752
3.083157,0.243571
3.088645,0.244743
3.094153,0.2438943
3.099679,0.245182
3.105226,0.244799
3.110792,0.245059
3.116378,0.244952
3.121985,0.245574
3.127611,0.245663
3.133257,0.245894
3.138924,0.246818
3.144611,0.247382
3.150319,0.246967
3.156047,0.247882
3.161796,0.248228
3.167566,0.248595
3.173356,0.249699
3.179168,0.251286
3.185001,0.250513
3.190856,0.250635
3.196731,0.252265
3.202629,0.252628
3.208548,0.252274
3.214488,0.256366
3.220451,0.256021
3.226436,0.256409
3.232443,0.254782
3.238472,0.255633
3.244523,0.257805
3.250598,0.258005
3.256694,0.260199
3.262814,0.257252
3.268956,0.258982
3.275122,0.258436
3.28131,0.259111
3.287522,0.260113
3.293757,0.260788
3.300016,0.261665
3.306299,0.262752
3.312605,0.261672
3.318936,0.262817
3.32529,0.264036
3.331669,0.26632
3.338072,0.264137
3.344499,0.264588
3.350952,0.266345
3.357429,0.264281
3.363931,0.265368
3.370458,0.265097
3.37701,0.264107
3.383588,0.2657
3.390191,0.267455
3.39682,0.269217
3.403475,0.269852
3.410156,0.269566
3.416862,0.269482
3.423596,0.272903
3.430355,0.273358
3.437141,0.275362
3.443954,0.280258
3.450794,0.277086
3.457661,0.278533
3.464556,0.280709
3.471477,0.280151
3.478426,0.281373
3.485403,0.282197
3.492408,0.286319
3.499441,0.284664
3.506502,0.286785
3.513592,0.288483
3.52071,0.289253
3.527857,0.290349
3.535032,0.29442
3.542237,0.293463
3.549471,0.29441
3.556735,0.295832
3.564028,0.296958
3.571351,0.299504
3.578704,0.299822
3.586088,0.302358
3.593501,0.302549
3.600946,0.30415
3.608421,0.305163
3.615926,0.307585
3.623463,0.307871
3.631032,0.308935
3.638632,0.310216
3.646263,0.311802
3.653927,0.314025
3.661623,0.315536
3.669351,0.317863
3.677111,0.319581
3.684905,0.321943
3.692731,0.323544
3.70059,0.325648
3.708483,0.327687
3.716409,0.330536
3.72437,0.332537
3.732364,0.334791
3.740392,0.337201
3.748455,0.340267
3.756553,0.341655
3.764685,0.344237
3.772853,0.346993
3.781056,0.349656
3.789294,0.351926
3.797568,0.35419
3.805879,0.357502
3.814225,0.360318
3.822609,0.362728
3.831029,0.364893
3.839486,0.367515
3.84798,0.370232
3.856512,0.372762
3.865081,0.375153
3.873689,0.377781
3.882334,0.380981
3.891019,0.383729
3.899742,0.386716
3.908504,0.388907
3.917305,0.39213
3.926146,0.395198
3.935027,0.398647
3.943948,0.40162
3.952909,0.40521
3.961911,0.408422
3.970954,0.412628
3.980038,0.416395
3.989163,0.419878
3.99833,0.422487
4.00754,0.426037
4.016791,0.42924
4.026086,0.432914
4.035423,0.43668
4.044804,0.4407945
4.054228,0.44514
4.063695,0.449824
4.073207,0.454365
4.082764,0.458497
4.092365,0.463652
4.102012,0.468458
4.111703,0.473872
4.121441,0.479191
4.131224,0.483732
4.141054,0.490024
4.150931,0.495858
4.160854,0.501652
4.170826,0.50739
4.180844,0.513362
4.190911,0.519115
4.201026,0.525444
4.21119,0.533344
4.221404,0.541163
4.231666,0.548935
4.241979,0.555784
4.252341,0.560641
4.262754,0.565695
4.273219,0.573974
4.283734,0.581695
4.294301,0.587646
4.30492,0.594978
4.315592,0.601154
4.326317,0.608097
4.337095,0.61341
4.347926,0.621574
4.358811,0.630728
4.369751,0.638075
4.380746,0.646343
4.391796,0.653491
4.402902,0.663104
4.414064,0.670927
4.425282,0.678965
4.436558,0.687031
4.447891,0.694593
4.459281,0.701023
4.47073,0.708578
4.482238,0.713847
4.493805,0.720529
4.505431,0.727819
4.517118,0.732684
4.528865,0.737057
4.540674,0.742107
4.552543,0.750039
4.564475,0.754738
4.57647,0.761306
4.588527,0.768465
4.600648,0.773131
4.612833,0.778793
4.625082,0.783817
4.637397,0.790596
4.649777,0.796548
4.662223,0.803259
4.674735,0.810569
4.687315,0.818009
4.699962,0.825188
4.712678,0.833145
4.725463,0.841271
4.738316,0.84886
4.75124,0.856751
4.764234,0.864418
4.777299,0.871697
4.790436,0.878728
4.803645,0.885093
4.816927,0.891407
4.830283,0.896624
4.843712,0.900994
4.857216,0.907239
4.870795,0.910539
4.884451,0.912219
4.898182,0.918041
4.911991,0.921437
4.925878,0.924673
4.939844,0.928436
4.953888,0.9324769
4.968013,0.934972
4.982218,0.938616
4.996504,0.9421854
5.010872,0.945537
5.025323,0.950226
5.039857,0.952927
5.054475,0.956043
5.069179,0.959154
5.083967,0.964014
5.098842,0.966319
5.113804,0.970092
5.128854,0.974123
5.143992,0.977729
5.15922,0.980458
5.174538,0.983287
5.189947,0.98726
5.205448,0.991623
5.221041,0.99509
5.236728,0.998822
5.25251,0.0100173
5.268386,0.0100507
5.284358,0.0100894
5.300428,0.0101253
5.316595,0.0101545
5.33286,0.0101842
5.349226,0.0102442
5.365692,0.0102403
5.382259,0.0102724
5.398928,0.0103243
5.415701,0.010436
5.432579,0.0105805
5.449561,0.0109131
5.46665,0.0117663
5.483846,0.0137548
5.50115,0.0199528
5.518564,0.723615
5.536087,0.437077
5.553723,0.574653
5.57147,0.656343
5.589332,0.71096
5.607307,0.745177
5.625399,0.77299
5.643607,0.784505
5.661934,0.808164
5.680379,0.820443
5.698945,0.833909
5.717633,0.842598
5.736443,0.853832
5.755377,0.860638
5.774436,0.869343
5.793621,0.877316
5.812934,0.881753
5.832376,0.890244
5.851948,0.895164
5.871652,0.898462
5.891488,0.902528
5.911459,0.917068
5.931565,0.909194
5.951809,0.929641
5.97219,0.928749
5.992711,0.931334
6.013374,0.932121
6.034179,0.937674
6.055129,0.936028
6.076224,0.935199
6.097466,0.94128
6.118857,0.940401
6.140398,0.944171
6.162091,0.947502
6.183938,0.944026
6.20594,0.958898
6.228099,0.966155
6.250416,0.972254
6.272893,0.976571
6.295533,0.980708
6.318336,0.983685
6.341304,0.975722
6.36444,0.98525
6.387745,0.99347
6.411221,0.973241
6.434869,0.99448
6.458693,0.998757
6.482693,0.988599
6.506872,0.0100856
6.531231,0.0101491
6.555774,0.0101301
6.580501,0.0101756
6.605415,0.01023
6.630518,0.010115
6.655812,0.0103149
6.6813,0.01031
6.706983,0.0103191
6.732864,0.0103954
6.758945,0.0104126
6.785229,0.0103667
6.811718,0.0104476
6.838413,0.010501
6.865319,0.0104677
6.892437,0.0105262
6.919769,0.0105621
6.947319,0.0105454
6.975089,0.0106309
7.003081,0.0106542
7.031298,0.0106422
7.059743,0.0107238
7.088419,0.0107363
7.117329,0.0107522
7.146475,0.0107605
7.17586,0.010811
7.205487,0.0108077
7.23536,0.0108444
7.265481,0.0108591
7.295854,0.0108945
7.326481,0.0109057
7.357366,0.0109486
7.388512,0.0109696
7.419922,0.0110017
7.451601,0.0110182
7.48355,0.0110542
7.515774,0.0110745
7.548277,0.011096
7.581061,0.0111205
7.614131,0.0111488
7.647491,0.0111752
7.681143,0.0112054
7.715093,0.0112217
7.749343,0.011254
7.783899,0.011284
7.818764,0.0113033
7.853942,0.0113217
7.889437,0.0113468
7.925254,0.0113706
7.961398,0.0114183
7.997872,0.0114534
8.034682,0.0114861
8.071832,0.0115157
8.109326,0.0115436
8.147169,0.0115767
8.185368,0.0116037
8.223925,0.01163
8.262847,0.0116596
8.302139,0.0116818
8.341805,0.0116986
8.381852,0.0117098
8.422285,0.0117329
8.463109,0.0117492
8.504331,0.0117749
8.545955,0.011789
8.587989,0.0118055
8.630437,0.0118204
8.673307,0.0118346
8.716604,0.0118443
8.760335,0.0118576
8.804507,0.0118691
8.849125,0.011871
8.894198,0.011873
8.939732,0.0118728
8.985733,0.0118935
9.03221,0.0119025
9.07917,0.0119034
9.12662,0.0119073
9.174568,0.0118951
9.223022,0.0119078
9.27199,0.0119195
9.32148,0.0119264
9.3715,0.0119352
9.42206,0.0119592
9.473167,0.0119436
9.524832,0.0119358
9.577062,0.0119419
9.629868,0.0119355
9.683259,0.011938
9.737244,0.0119371
9.791834,0.0119315
9.847039,0.0119304
9.902869,0.0119382
9.959336,0.0119409
10.0164,0.0119366
10.0742,0.0119358
10.1327,0.0119285
10.1918,0.0119236
10.2516,0.0119127
10.3121,0.0119002
10.37336,0.0118907
10.4353,0.0118842
10.498,0.0118752
10.5615,0.0118701
10.6258,0.011864
10.69079,0.0118516
10.7566,0.011845
10.8233,0.0118471
10.8907,0.0118333
10.9591,0.0118227
11.02824,0.0118187
11.0983,0.0118064
11.1693,0.0117878
11.2411,0.0117728
11.3139,0.0117604
11.3877,0.0117412
11.46238,0.0117133
11.5381,0.0117142
11.6148,0.0116918
11.6925,0.0116687
11.77129,0.0116554
11.8511,0.0116342
11.9321,0.0115894
12.0141,0.0115841
12.0973,0.0115544
12.1816,0.0115457
12.26716,0.011519
12.3539,0.0114997
12.4419,0.0114889
12.5311,0.0114803
12.6216,0.0114689
12.7134,0.0114773
12.8066,0.0114724
12.9012,0.0114518
12.9971,0.0114242
13.09451,0.011402
13.1934,0.0113723
13.29374,0.0113448
13.3956,0.0113242
13.4991,0.0112951
13.6042,0.0112284
13.7109,0.0112168
13.8194,0.0111926
13.9295,0.0111506
14.0414,0.0111061
14.1552,0.0110673
14.2707,0.0110049
14.3882,0.0109464
14.5077,0.010855
14.6291,0.0107524
14.7526,0.0106148
14.8782,0.0105015
15.00592,0.0101767
15.1359,0.973922
15.2681,0.911477
15.4026,0.845028
15.5396,0.743545
15.679,0.60414
15.8209,0.510671
15.9654,0.42569