File: csv_library/FTIR_PLG_06.csv
Database of Origin,University of Winnipeg Spectrophotometer Facility
Sample Description,IR Reflectance spectra of plagioclase with a Bruker Vertex 70 FTIR. See Master Plagioclase in PSF database for additional info.
Date Added,2016-11-22 04:00:06.352483

Data ID,FTIR_PLG_06
Sample ID,PLG114
Mineral Name,Plagioclase
Grain Size,<45 um
Viewing Geometry,"i30, e0"
Resolution,7.71cm-1
Material Class,Tectosilicate

Wavelength
1670.16,0.5528
1672.32,0.5526
1674.48,0.55242
1676.64,0.55224
1678.81,0.55237
1680.99,0.55286
1683.18,0.55318
1685.36,0.55305
1687.56,0.55258
1689.76,0.55229
1691.96,0.55221
1694.18,0.5522
1696.39,0.55243
1698.62,0.55235
1700.85,0.5519
1703.08,0.55154
1705.32,0.55135
1707.57,0.55139
1709.82,0.55154
1712.08,0.55183
1714.35,0.55223
1716.62,0.55206
1718.89,0.55144
1721.18,0.55102
1723.46,0.5507
1725.76,0.55042
1728.06,0.55041
1730.37,0.5509
1732.68,0.55181
1735,0.55226
1737.33,0.55208
1739.66,0.55191
1742,0.55176
1744.34,0.55154
1746.69,0.55122
1749.05,0.55091
1751.41,0.55124
1753.78,0.5519
1756.16,0.55192
1758.54,0.55144
1760.93,0.55099
1763.33,0.55102
1765.73,0.55126
1768.14,0.551
1770.55,0.5507
1772.98,0.55097
1775.4,0.55134
1777.84,0.55144
1780.28,0.55129
1782.73,0.55108
1785.19,0.55092
1787.65,0.55089
1790.12,0.55088
1792.59,0.55078
1795.08,0.5507
1797.57,0.5507
1800.06,0.55076
1802.57,0.55098
1805.08,0.55128
1807.59,0.55157
1810.12,0.55185
1812.65,0.55218
1815.19,0.55255
1817.73,0.55316
1820.29,0.55371
1822.85,0.55361
1825.42,0.5541
1827.99,0.55501
1830.57,0.55484
1833.16,0.55525
1835.76,0.55751
1838.36,0.55904
1840.97,0.55784
1843.59,0.55622
1846.22,0.55711
1848.85,0.55704
1851.49,0.55542
1854.14,0.55511
1856.8,0.55498
1859.46,0.55447
1862.13,0.5532
1864.81,0.5533
1867.5,0.55627
1870.19,0.55943
1872.9,0.55922
1875.61,0.55562
1878.33,0.55136
1881.05,0.54899
1883.79,0.54842
1886.53,0.54805
1889.28,0.54805
1892.04,0.54725
1894.8,0.54554
1897.58,0.54557
1900.36,0.54594
1903.15,0.545
1905.95,0.5428
1908.76,0.53991
1911.57,0.53882
1914.39,0.5385
1917.23,0.53848
1920.07,0.53922
1922.92,0.5387
1925.77,0.53771
1928.64,0.53732
1931.51,0.53699
1934.4,0.537
1937.29,0.53736
1940.19,0.5375
1943.1,0.53736
1946.01,0.53715
1948.94,0.53686
1951.88,0.5368
1954.82,0.537
1957.77,0.53729
1960.73,0.53753
1963.7,0.53767
1966.68,0.5379
1969.67,0.53806
1972.67,0.53799
1975.68,0.53785
1978.69,0.53793
1981.72,0.53818
1984.76,0.53849
1987.8,0.53873
1990.85,0.53886
1993.92,0.53906
1996.99,0.53922
2000.07,0.53922
2003.16,0.53913
2006.26,0.53916
2009.37,0.53946
2012.49,0.53981
2015.62,0.54022
2018.76,0.54071
2021.91,0.54102
2025.07,0.54107
2028.24,0.54118
2031.42,0.54138
2034.61,0.5416
2037.81,0.54203
2041.02,0.54242
2044.24,0.54226
2047.46,0.54185
2050.7,0.54176
2053.95,0.54194
2057.21,0.54225
2060.48,0.54257
2063.77,0.54269
2067.06,0.54268
2070.36,0.54273
2073.67,0.54258
2077,0.54235
2080.33,0.54235
2083.67,0.54238
2087.03,0.54251
2090.4,0.54265
2093.77,0.54267
2097.16,0.54273
2100.56,0.54255
2103.97,0.54212
2107.39,0.54191
2110.82,0.54201
2114.27,0.54232
2117.72,0.54239
2121.19,0.54194
2124.66,0.54146
2128.15,0.5415
2131.65,0.54154
2135.16,0.54111
2138.69,0.54081
2142.22,0.54076
2145.77,0.54052
2149.33,0.53985
2152.9,0.53909
2156.48,0.53853
2160.08,0.53792
2163.68,0.53704
2167.3,0.53582
2170.93,0.53448
2174.57,0.53333
2178.23,0.53219
2181.89,0.53104
2185.57,0.52997
2189.27,0.52891
2192.97,0.52808
2196.69,0.5279
2200.42,0.52821
2204.16,0.5288
2207.91,0.52959
2211.68,0.53015
2215.46,0.53028
2219.26,0.53003
2223.06,0.52946
2226.88,0.52856
2230.71,0.52737
2234.56,0.52611
2238.42,0.52476
2242.29,0.52324
2246.18,0.52194
2250.08,0.52094
2253.99,0.52007
2257.92,0.51952
2261.86,0.51942
2265.813,0.51959
2269.78,0.51997
2273.76,0.52019
2277.76,0.51991
2281.77,0.51902
2285.79,0.5178
2289.83,0.51692
2293.89,0.51635
2297.95,0.5157
2302.03,0.51498
2306.13,0.51419
2310.24,0.51319
2314.37,0.51145
2318.51,0.50879
2322.66,0.50547
2326.83,0.50205
2331.02,0.49929
2335.22,0.49745
2339.43,0.49646
2343.66,0.4959
2347.91,0.49516
2352.17,0.49418
2356.45,0.49376
2360.74,0.49477
2365.05,0.49735
2369.37,0.50054
2373.71,0.50288
2378.06,0.50431
2382.44,0.50525
2386.82,0.50582
2391.23,0.50653
2395.65,0.5075
2400.08,0.50835
2404.54,0.50881
2409.01,0.50894
2413.49,0.50901
2417.99,0.50881
2422.51,0.50812
2427.05,0.50736
2431.6,0.50682
2436.17,0.50628
2440.76,0.50564
2445.37,0.5051
2449.99,0.50443
2454.63,0.50331
2459.29,0.502
2463.96,0.50098
2468.66,0.50049
2473.37,0.50041
2478.1,0.50051
2482.84,0.50089
2487.61,0.50124
2492.39,0.50105
2497.2,0.50051
2502.02,0.50029
2506.86,0.50031
2511.72,0.50033
2516.59,0.50021
2521.49,0.50005
2526.4,0.50056
2531.34,0.50163
2536.29,0.50217
2541.26,0.50295
2546.26,0.50383
2551.27,0.50312
2556.3,0.50421
2561.35,0.5086
2566.43,0.51014
2571.52,0.50984
2576.63,0.51169
2581.76,0.51506
2586.92,0.51743
2592.09,0.51757
2597.28,0.51673
2602.5,0.51756
2607.74,0.51693
2612.99,0.51514
2618.27,0.51325
2623.57,0.51057
2628.89,0.50919
2634.24,0.5023
2639.6,0.49577
2644.99,0.49457
2650.4,0.49542
2655.83,0.49857
2661.28,0.50587
2666.76,0.51249
2672.26,0.50814
2677.779,0.494
2683.32,0.47677
2688.89,0.46152
2694.48,0.44275
2700.09,0.41732
2705.73,0.38968
2711.39,0.35758
2717.08,0.32598
2722.78,0.29199
2728.52,0.26272
2734.27,0.24598
2740.05,0.22999
2745.86,0.21513
2751.69,0.20979
2757.54,0.21173
2763.42,0.21601
2769.327,0.21852
2775.26,0.2183
2781.21,0.21654
2787.19,0.21237
2793.2,0.20723
2799.23,0.204
2805.29,0.20099
2811.38,0.19765
2817.49,0.19557
2823.63,0.19408
2829.79,0.19309
2835.98,0.19169
2842.2,0.18846
2848.45,0.18392
2854.72,0.17728
2861.03,0.16974
2867.36,0.16586
2873.71,0.16776
2880.1,0.17328
2886.51,0.17893
2892.96,0.18299
2899.43,0.18514
2905.93,0.18496
2912.46,0.18342
2919.02,0.18192
2925.61,0.18071
2932.23,0.18024
2938.88,0.18087
2945.56,0.18204
2952.27,0.18333
2959.01,0.18461
2965.78,0.18594
2972.58,0.18699
2979.41,0.18738
2986.28,0.18739
2993.18,0.18752
3000.1,0.18806
3007.07,0.18951
3014.06,0.19196
3021.084,0.19474
3028.14,0.1974
3035.23,0.20004
3042.36,0.20272
3049.52,0.20541
3056.71,0.20791
3063.94,0.20996
3071.2,0.21176
3078.49,0.21337
3085.82,0.21468
3093.19,0.21564
3100.59,0.21636
3108.02,0.21677
3115.49,0.21702
3123,0.21741
3130.54,0.21808
3138.12,0.21921
3145.74,0.22085
3153.39,0.22294
3161.09,0.22569
3168.81,0.22902
3176.58,0.23286
3184.39,0.23703
3192.23,0.24145
3200.11,0.24614
3208.03,0.25067
3215.99,0.25483
3223.99,0.2589
3232.03,0.26281
3240.11,0.26664
3248.23,0.27052
3256.39,0.27442
3264.6,0.27827
3272.84,0.28188
3281.13,0.28519
3289.45,0.28849
3297.82,0.29184
3306.24,0.29502
3314.69,0.2982
3323.19,0.30121
3331.74,0.30382
3340.32,0.30613
3348.95,0.30804
3357.63,0.3093
3366.35,0.31
3375.12,0.31118
3383.93,0.31341
3392.79,0.31509
3401.69,0.31479
3410.64,0.31402
3419.64,0.3165
3428.69,0.3233
3437.79,0.33118
3446.93,0.33753
3456.12,0.34227
3465.36,0.34557
3474.65,0.34771
3483.99,0.34895
3493.38,0.34977
3502.82,0.35267
3512.32,0.35911
3521.86,0.36635
3531.46,0.3719
3541.11,0.37588
3550.81,0.37919
3560.56,0.38226
3570.37,0.38503
3580.23,0.38762
3590.15,0.39014
3600.13,0.39252
3610.15,0.39477
3620.24,0.3969
3630.38,0.39889
3640.58,0.40087
3650.83,0.40305
3661.14,0.40521
3671.52,0.40709
3681.95,0.40895
3692.44,0.41087
3702.99,0.41272
3713.6,0.41441
3724.27,0.41605
3735,0.4179
3745.79,0.41986
3756.65,0.42171
3767.57,0.42344
3778.56,0.42502
3789.61,0.42641
3800.72,0.42753
3811.9,0.42844
3823.14,0.4292
3834.45,0.42996
3845.83,0.43091
3857.28,0.43183
3868.79,0.43263
3880.37,0.43345
3892.03,0.43427
3903.75,0.43484
3915.54,0.4352
3927.41,0.43564
3939.35,0.43598
3951.36,0.43573
3963.44,0.43502
3975.6,0.43457
3987.83,0.4348
4000.14,0.43554
4012.52,0.43629
4024.98,0.43667
4037.52,0.43681
4050.14,0.43693
4062.84,0.43704
4075.61,0.43689
4088.47,0.43637
4101.41,0.4357
4114.43,0.43512
4127.53,0.4345
4140.72,0.43372
4153.99,0.43283
4167.35,0.43193
4180.79,0.43195
4194.32,0.43683
4207.94,0.45167
4221.65,0.47236
4235.44,0.47928
4249.33,0.46787
4263.31,0.46037
4277.38,0.45997
4291.54,0.45266
4305.8,0.43784
4320.15,0.42289
4334.6,0.4118
4349.14,0.40468
4363.79,0.39974
4378.53,0.39576
4393.37,0.39255
4408.32,0.38954
4423.36,0.38599
4438.51,0.38201
4453.76,0.37854
4469.12,0.37648
4484.58,0.37564
4500.16,0.37498
4515.84,0.37373
4531.626,0.37146
4547.53,0.36776
4563.54,0.36272
4579.66,0.35608
4595.9,0.34821
4612.26,0.34065
4628.73,0.33497
4645.32,0.33183
4662.03,0.33082
4678.86,0.33058
4695.82,0.32985
4712.89,0.32794
4730.09,0.32493
4747.42,0.32135
4764.87,0.31823
4782.45,0.31568
4800.17,0.31297
4818.01,0.31002
4835.99,0.3076
4854.1,0.30536
4872.35,0.30252
4890.74,0.29893
4909.26,0.29526
4927.93,0.29208
4946.74,0.28946
4965.69,0.28647
4984.79,0.28254
5004.03,0.27807
5023.43,0.27331
5042.98,0.26838
5062.68,0.26438
5082.53,0.26106
5102.54,0.25737
5122.71,0.2535
5143.04,0.24892
5163.53,0.24349
5184.18,0.23915
5205,0.23575
5225.99,0.23164
5247.15,0.22696
5268.48,0.22228
5289.98,0.21734
5311.66,0.21258
5333.52,0.20916
5355.56,0.20491
5377.78,0.19901
5400.19,0.19418
5422.78,0.19056
5445.57,0.18804
5468.54,0.18711
5491.72,0.18694
5515.09,0.18816
5538.65,0.19084
5562.43,0.19315
5586.4,0.19301
5610.58,0.19189
5634.98,0.19045
5659.59,0.18681
5684.41,0.18253
5709.45,0.17884
5734.71,0.17437
5760.2,0.16848
5785.92,0.16274
5811.86,0.15866
5838.04,0.15438
5864.46,0.14964
5891.11,0.14308
5918.01,0.13561
5945.16,0.12822
5972.56,0.1205
6000.21,0.11409
6028.12,0.11085
6056.29,0.10999
6084.72,0.10889
6113.42,0.10778
6142.39,0.10765
6171.64,0.10818
6201.17,0.1082
6230.99,0.10777
6261.09,0.10732
6291.48,0.10689
6322.17,0.10755
6353.16,0.10971
6384.46,0.11215
6416.06,0.11342
6447.99,0.11332
6480.23,0.11338
6512.79,0.1125
6545.68,0.11151
6578.91,0.11073
6612.47,0.10861
6646.38,0.10579
6680.64,0.10337
6715.26,0.10113
6750.23,0.09902
6785.58,0.09683
6821.29,0.09437
6857.38,0.09204
6893.86,0.08937
6930.72,0.08719
6967.98,0.08548
7005.65,0.08356
7043.72,0.08094
7082.21,0.078
7121.13,0.07578
7160.47,0.07314
7200.25,0.06921
7240.48,0.06529
7281.15,0.0619
7322.29,0.05856
7363.89,0.05497
7405.97,0.05128
7448.53,0.04754
7491.59,0.04354
7535.15,0.03967
7579.21,0.03586
7623.79,0.03196
7668.91,0.02808
7714.55,0.0243
7760.75,0.02065
7807.5,0.01731
7854.82,0.01421
7902.71,0.01131
7951.2,0.0089
8000.28,0.007
8049.97,0.00565
8100.28,0.0051
8151.23,0.0052
8202.82,0.00604
8255.06,0.00804
8307.98,0.01128
8361.58,0.01503
8415.88,0.01857
8470.88,0.02199
8526.61,0.02506
8583.08,0.02705
8640.3,0.02774
8698.29,0.0277
8757.06,0.02713
8816.63,0.026
8877.02,0.02484
8938.24,0.02402
9000.31,0.02326
9063.25,0.02208
9127.08,0.0202
9191.81,0.01815
9257.46,0.01654
9324.07,0.01561
9391.63,0.0158
9460.18,0.01777
9529.74,0.02138
9600.33,0.02511
9671.98,0.02736
9744.7,0.02779
9818.52,0.0271
9893.47,0.02655
9969.58,0.02691
10046.9,0.02795
10125.4,0.02904
10205.1,0.03016
10286.1,0.03198
10368.4,0.03477
10452,0.0378
10537,0.04021
10623.3,0.04162
10711.1,0.04222
10800.4,0.04202
10891.1,0.04143
10983.4,0.04102
11077.3,0.04055
11172.8,0.0398
11270,0.03923
11368.8,0.03956
11469.4,0.04117
11571.8,0.04368
11676.1,0.04689
11782.2,0.05038
11890.3,0.05307
12000.4,0.05441
12112.6,0.05439
12226.8,0.05318
12343.3,0.05026
12462,0.04471
12583,0.03685
12706.3,0.02836
12832.1,0.02188
12960.5,0.01917
13091.4,0.01899
13224.9,0.01927
13361.3,0.0191
13500.5,0.0184
13642.6,0.01801
13787.7,0.01859
13936,0.01926
14087.4,0.01854
14242.3,0.01627
14400.5,0.01394
14562.3,0.0131
14727.8,0.01366
14897.1,0.01469
15070.3,0.01589
15247.6,0.01789
15429.1,0.02128
15615,0.02489
15805.4,0.02696
16000.6,0.0271
16200.6,0.02604
16405.6,0.02579
16616,0.0278
16831.8,0.03211
17053.2,0.03636
17280.6,0.03607
17514.1,0.03298
17754,0.03099
18000.6,0.03002
18254.2,0.03097
18514.9,0.03289
18783.3,0.03319
19059.5,0.03271
19344,0.03286
19637,0.03235
19939.2,0.02919
20250.7,0.02515
20572.1,0.02307
20904,0.02218
21246.6,0.02316
21600.8,0.02541
21966.9,0.02646
22345.6,0.02615
22737.6,0.02438
23143.7,0.02392
23564.5,0.02426
24000.8,0.01843
24453.7,0.00975
24923.9,0.01365
25412.6,0.06728