File: csv_library/FTIR_PYX_06.csv
Database of Origin,University of Winnipeg Spectrophotometer Facility
Sample Description,"HOSERLab master pyroxenes, FTIR data"
Date Added,2016-12-14 03:34:49.6709

Data ID,FTIR_PYX_06
Sample ID,PYX032
Mineral Name,Orthopyroxene
Grain Size,45-90 um
Viewing Geometry,"i=30, e=0"
Material Class,Inosilicate

Wavelength
2000.56,0.162821
2002.307,0.1628634
2004.058,0.16338
2005.812,0.163541
2007.569,0.163586
2009.329,0.163696
2011.092,0.16382
2012.858,0.1636684
2014.627,0.164019
2016.399,0.163971
2018.174,0.1644012
2019.952,0.165044
2021.733,0.164518
2023.518,0.164545
2025.305,0.165148
2027.096,0.1651991
2028.89,0.1652098
2030.686,0.165416
2032.486,0.165492
2034.289,0.165996
2036.096,0.166104
2037.905,0.166543
2039.718,0.166583
2041.533,0.1668492
2043.352,0.1668192
2045.174,0.166873
2047.0,0.167435
2048.828,0.1676333
2050.66,0.167603
2052.495,0.167938
2054.333,0.168594
2056.175,0.16868
2058.019,0.168847
2059.867,0.169101
2061.718,0.169665
2063.573,0.169614
2065.431,0.170139
2067.292,0.170502
2069.156,0.170655
2071.024,0.170714
2072.895,0.171191
2074.769,0.171766
2076.647,0.171843
2078.528,0.171923
2080.412,0.172422
2082.3,0.173121
2084.191,0.17319
2086.085,0.173555
2087.983,0.174348
2089.885,0.1750005
2091.789,0.174902
2093.697,0.174886
2095.609,0.175698
2097.524,0.1763235
2099.443,0.176498
2101.364,0.176712
2103.29,0.176669
2105.219,0.176843
2107.151,0.176998
2109.087,0.1769567
2111.026,0.176905
2112.969,0.177114
2114.915,0.1775
2116.865,0.178071
2118.819,0.179109
2120.776,0.179287
2122.736,0.179721
2124.7,0.180891
2126.668,0.181819
2128.64,0.182945
2130.614,0.183375
2132.593,0.183315
2134.575,0.183935
2136.561,0.184228
2138.55,0.184986
2140.544,0.185985
2142.54,0.186573
2144.541,0.187019
2146.545,0.187776
2148.553,0.188449
2150.564,0.188968
2152.579,0.189706
2154.598,0.190562
2156.621,0.191654
2158.647,0.192357
2160.678,0.193407
2162.712,0.193969
2164.749,0.194609
2166.791,0.195575
2168.836,0.196541
2170.885,0.197624
2172.938,0.198282
2174.995,0.198798
2177.056,0.1997639
2179.12,0.200943
2181.189,0.201157
2183.261,0.201954
2185.337,0.203349
2187.417,0.203723
2189.501,0.204495
2191.589,0.205359
2193.68,0.206366
2195.776,0.207432
2197.876,0.208104
2199.979,0.209187
2202.087,0.210335
2204.199,0.211082
2206.314,0.21195
2208.434,0.213055
2210.557,0.213865
2212.685,0.215236
2214.817,0.216337
2216.952,0.216825
2219.092,0.218012
2221.236,0.218999
2223.384,0.219473
2225.536,0.220487
2227.692,0.221795
2229.853,0.222429
2232.017,0.2230596
2234.186,0.223963
2236.359,0.224708
2238.536,0.225757
2240.717,0.226858
2242.902,0.2277179
2245.092,0.228483
2247.285,0.2289958
2249.483,0.230158
2251.686,0.231408
2253.892,0.232275
2256.103,0.233608
2258.318,0.234678
2260.537,0.235473
2262.761,0.23681
2264.989,0.2377109
2267.221,0.238147
2269.458,0.239142
2271.699,0.240279
2273.944,0.2414245
2276.194,0.242407
2278.448,0.24345
2280.707,0.244392
2282.97,0.24558
2285.237,0.246233
2287.509,0.247416
2289.786,0.248314
2292.067,0.249333
2294.352,0.250718
2296.642,0.251668
2298.936,0.252457
2301.235,0.253332
2303.539,0.254316
2305.847,0.255525
2308.159,0.256827
2310.476,0.25744
2312.798,0.2581248
2315.124,0.259184
2317.455,0.259941
2319.791,0.260591
2322.131,0.261495
2324.476,0.262554
2326.826,0.264292
2329.18,0.265396
2331.54,0.26669
2333.903,0.267573
2336.272,0.2684504
2338.645,0.269787
2341.023,0.271107
2343.406,0.272163
2345.794,0.273164
2348.186,0.274577
2350.583,0.276167
2352.986,0.276788
2355.393,0.277962
2357.804,0.278815
2360.221,0.280291
2362.643,0.281502
2365.069,0.282116
2367.501,0.283241
2369.937,0.284275
2372.379,0.285301
2374.825,0.286497
2377.276,0.2875955
2379.733,0.288736
2382.194,0.289499
2384.661,0.290747
2387.132,0.2918163
2389.609,0.292667
2392.09,0.293535
2394.577,0.294352
2397.069,0.2954614
2399.566,0.296504
2402.068,0.297502
2404.575,0.298498
2407.088,0.299562
2409.606,0.300639
2412.128,0.301524
2414.657,0.302512
2417.19,0.303662
2419.729,0.304516
2422.272,0.305133
2424.822,0.305879
2427.376,0.30683
2429.936,0.307825
2432.501,0.308651
2435.072,0.30964
2437.648,0.310472
2440.229,0.31114
2442.816,0.312282
2445.408,0.31331
2448.006,0.314125
2450.609,0.314735
2453.217,0.3153809
2455.831,0.315975
2458.451,0.3166096
2461.076,0.317374
2463.707,0.318402
2466.343,0.319455
2468.985,0.319991
2471.632,0.320811
2474.285,0.321441
2476.944,0.322204
2479.608,0.322394
2482.278,0.3231691
2484.954,0.324199
2487.636,0.325137
2490.323,0.3256793
2493.016,0.325999
2495.715,0.326977
2498.419,0.327472
2501.129,0.328268
2503.845,0.328886
2506.567,0.329129
2509.295,0.3297367
2512.029,0.330487
2514.769,0.331167
2517.514,0.331873
2520.266,0.33252
2523.023,0.333091
2525.787,0.333217
2528.556,0.334052
2531.331,0.33515
2534.113,0.3356085
2536.9,0.335752
2539.694,0.336505
2542.494,0.337435
2545.3,0.337683
2548.112,0.338493
2550.93,0.339572
2553.754,0.339372
2556.585,0.338844
2559.421,0.340627
2562.264,0.343078
2565.113,0.341543
2567.969,0.342075
2570.831,0.34261
2573.699,0.343764
2576.573,0.344127
2579.454,0.344137
2582.342,0.346223
2585.235,0.3466175
2588.135,0.346711
2591.042,0.347321
2593.955,0.354598
2596.874,0.3478053
2599.8,0.346626
2602.733,0.349573
2605.672,0.3507822
2608.618,0.348509
2611.57,0.347303
2614.529,0.349528
2617.495,0.35171
2620.467,0.350455
2623.446,0.348156
2626.431,0.3505266
2629.424,0.352623
2632.423,0.351604
2635.429,0.349622
2638.442,0.349399
2641.461,0.349644
2644.488,0.350575
2647.521,0.3502411
2650.561,0.350609
2653.609,0.351868
2656.663,0.3513108
2659.724,0.351577
2662.792,0.352766
2665.867,0.357254
2668.949,0.357518
2672.038,0.353268
2675.135,0.3525916
2678.238,0.352224
2681.349,0.346883
2684.467,0.346359
2687.591,0.344423
2690.724,0.343137
2693.863,0.345728
2697.01,0.339705
2700.164,0.336508
2703.325,0.333076
2706.494,0.329591
2709.67,0.330806
2712.853,0.317422
2716.044,0.297543
2719.242,0.288338
2722.448,0.288279
2725.661,0.273014
2728.882,0.2438632
2732.111,0.233148
2735.347,0.23057
2738.59,0.2229314
2741.841,0.207592
2745.1,0.196345
2748.367,0.193979
2751.641,0.189556
2754.923,0.186628
2758.213,0.17905
2761.51,0.176508
2764.816,0.174683
2768.129,0.1730406
2771.45,0.171223
2774.779,0.169261
2778.116,0.168405
2781.461,0.167318
2784.814,0.166435
2788.175,0.16503
2791.544,0.164337
2794.922,0.163414
2798.307,0.162746
2801.7,0.161646
2805.102,0.160436
2808.512,0.16072
2811.93,0.160456
2815.356,0.160037
2818.791,0.160067
2822.233,0.1597387
2825.685,0.160389
2829.144,0.16003
2832.612,0.159967
2836.089,0.160155
2839.574,0.160099
2843.067,0.160366
2846.569,0.159824
2850.08,0.159263
2853.599,0.159301
2857.127,0.159112
2860.664,0.159934
2864.209,0.159682
2867.763,0.159155
2871.325,0.158729
2874.897,0.158954
2878.477,0.158819
2882.066,0.158448
2885.664,0.158165
2889.271,0.158888
2892.887,0.158457
2896.512,0.157171
2900.146,0.156484
2903.789,0.156212
2907.441,0.156367
2911.103,0.1561408
2914.773,0.156675
2918.453,0.157928
2922.142,0.156788
2925.84,0.156453
2929.547,0.1559421
2933.264,0.155766
2936.99,0.156684
2940.726,0.1568623
2944.471,0.1568026
2948.225,0.1588434
2951.989,0.158262
2955.763,0.158734
2959.546,0.15754
2963.339,0.1580417
2967.141,0.158742
2970.953,0.159262
2974.775,0.1616319
2978.607,0.161842
2982.448,0.161024
2986.3,0.161236
2990.161,0.162374
2994.032,0.163593
2997.913,0.16386
3001.804,0.165616
3005.705,0.166028
3009.616,0.16627
3013.538,0.167929
3017.469,0.168842
3021.411,0.1687706
3025.363,0.169468
3029.325,0.171926
3033.298,0.174532
3037.281,0.172864
3041.274,0.173463
3045.278,0.175181
3049.292,0.174772
3053.317,0.1748752
3057.352,0.175503
3061.398,0.176622
3065.455,0.17876
3069.522,0.177883
3073.6,0.178018
3077.689,0.178805
3081.788,0.179619
3085.899,0.180333
3090.02,0.181024
3094.153,0.1808383
3098.296,0.181774
3102.45,0.183198
3106.616,0.182327
3110.792,0.18293
3114.98,0.183894
3119.179,0.184407
3123.389,0.185074
3127.611,0.185955
3131.844,0.186416
3136.088,0.186682
3140.344,0.187782
3144.611,0.188664
3148.89,0.1896009
3153.18,0.19028
3157.482,0.190884
3161.796,0.192459
3166.121,0.193423
3170.458,0.193829
3174.807,0.194797
3179.168,0.19731
3183.541,0.198516
3187.926,0.197896
3192.323,0.199709
3196.731,0.200617
3201.152,0.200508
3205.585,0.201862
3210.031,0.202801
3214.488,0.206322
3218.958,0.207414
3223.441,0.2060836
3227.936,0.206798
3232.443,0.206781
3236.963,0.20789
3241.495,0.208628
3246.04,0.210318
3250.598,0.211799
3255.168,0.213735
3259.751,0.214064
3264.347,0.212634
3268.956,0.214075
3273.578,0.214369
3278.213,0.214203
3282.861,0.215351
3287.522,0.216471
3292.196,0.217041
3296.884,0.218793
3301.585,0.218306
3306.299,0.218918
3311.026,0.218619
3315.767,0.219366
3320.522,0.22005
3325.29,0.221806
3330.072,0.2237357
3334.867,0.221866
3339.676,0.221092
3344.499,0.221724
3349.336,0.2227993
3354.187,0.222669
3359.052,0.222157
3363.931,0.223806
3368.824,0.224333
3373.731,0.224023
3378.652,0.223473
3383.588,0.22394
3388.538,0.2246851
3393.502,0.225473
3398.481,0.226888
3403.475,0.228006
3408.483,0.2284034
3413.506,0.226886
3418.543,0.227085
3423.596,0.228747
3428.663,0.22873
3433.745,0.22944
3438.842,0.231565
3443.954,0.233633
3449.082,0.2318125
3454.224,0.231769
3459.382,0.232142
3464.556,0.232901
3469.744,0.232301
3474.948,0.231622
3480.168,0.231839
3485.403,0.232539
3490.654,0.235138
3495.921,0.234666
3501.204,0.234188
3506.502,0.235215
3511.817,0.23618
3517.147,0.2369389
3522.494,0.238206
3527.857,0.2384382
3533.236,0.240627
3538.631,0.241051
3544.043,0.240026
3549.471,0.2404
3554.916,0.241009
3560.378,0.241278
3565.856,0.241892
3571.351,0.242636
3576.863,0.2424012
3582.392,0.243516
3587.938,0.244409
3593.501,0.24441
3599.082,0.245109
3604.679,0.244273
3610.294,0.24449
3615.926,0.24573
3621.576,0.2456666
3627.244,0.245736
3632.929,0.246141
3638.632,0.246457
3644.353,0.246853
3650.091,0.24789
3655.848,0.248073
3661.623,0.248028
3667.416,0.2483826
3673.227,0.248514
3679.057,0.2495263
3684.905,0.2503
3690.771,0.249991
3696.656,0.250089
3702.56,0.25081
3708.483,0.25125
3714.425,0.25174
3720.385,0.252212
3726.365,0.252607
3732.364,0.253371
3738.382,0.253985
3744.419,0.255371
3750.476,0.256288
3756.553,0.256776
3762.649,0.257041
3768.764,0.25739
3774.9,0.257923
3781.056,0.258233
3787.231,0.258736
3793.427,0.259426
3799.643,0.259885
3805.879,0.260533
3812.135,0.261079
3818.412,0.262014
3824.71,0.262679
3831.029,0.263083
3837.368,0.263968
3843.728,0.265042
3850.109,0.265931
3856.512,0.266791
3862.935,0.267854
3869.38,0.268715
3875.846,0.269767
3882.334,0.270662
3888.844,0.2717177
3895.375,0.272701
3901.929,0.2733132
3908.504,0.274163
3915.101,0.275432
3921.721,0.276219
3928.363,0.276825
3935.027,0.277878
3941.714,0.278828
3948.423,0.279642
3955.156,0.280604
3961.911,0.281633
3968.689,0.283182
3975.491,0.284492
3982.315,0.286227
3989.163,0.288001
3996.035,0.289665
4002.93,0.292005
4009.849,0.294287
4016.791,0.296351
4023.758,0.2982192
4030.749,0.299749
4037.764,0.301651
4044.804,0.303944
4051.867,0.306155
4058.956,0.308113
4066.069,0.310257
4073.207,0.3126007
4080.371,0.314937
4087.559,0.3174173
4094.773,0.319779
4102.012,0.322397
4109.276,0.324969
4116.566,0.327656
4123.882,0.330611
4131.224,0.33359
4138.592,0.336319
4145.987,0.339604
4153.407,0.343051
4160.854,0.34634
4168.328,0.349414
4175.829,0.352896
4183.356,0.356087
4190.911,0.360299
4198.493,0.367738
4206.102,0.381916
4213.739,0.401448
4221.404,0.420688
4229.096,0.436267
4236.816,0.44629
4244.565,0.447291
4252.341,0.4319691
4260.146,0.425654
4267.98,0.445543
4275.843,0.4524599
4283.734,0.454807
4291.655,0.458503
4299.604,0.459001
4307.583,0.459387
4315.592,0.456428
4323.631,0.454372
4331.699,0.452887
4339.797,0.451851
4347.926,0.453266
4356.085,0.456142
4364.275,0.4592903
4372.495,0.463305
4380.746,0.467513
4389.029,0.473074
4397.342,0.478797
4405.687,0.484228
4414.064,0.489619
4422.472,0.494953
4430.913,0.5001
4439.386,0.50457
4447.891,0.508459
4456.428,0.512521
4464.998,0.516319
4473.602,0.520034
4482.238,0.523599
4490.908,0.526286
4499.611,0.52935
4508.347,0.532519
4517.118,0.5354766
4525.923,0.538622
4534.762,0.541942
4543.635,0.544941
4552.543,0.548442
4561.487,0.552225
4570.465,0.555288
4579.478,0.558593
4588.527,0.562559
4597.612,0.565619
4606.732,0.57007
4615.889,0.573594
4625.082,0.577327
4634.312,0.58029
4643.578,0.5841623
4652.882,0.588056
4662.223,0.5923008
4671.601,0.597068
4681.017,0.602033
4690.471,0.604235
4699.962,0.6084602
4709.493,0.613316
4719.062,0.616599
4728.669,0.620571
4738.316,0.624488
4748.002,0.627905
4757.728,0.632397
4767.494,0.636387
4777.299,0.640621
4787.145,0.644682
4797.032,0.647966
4806.959,0.651341
4816.927,0.65565
4826.937,0.657767
4836.988,0.659694
4847.081,0.663047
4857.216,0.666555
4867.393,0.668799
4877.613,0.670368
4887.876,0.673367
4898.182,0.677764
4908.532,0.680824
4918.925,0.682436
4929.362,0.685758
4939.844,0.688885
4950.37,0.692362
4960.941,0.695225
4971.556,0.696695
4982.218,0.699423
4992.925,0.701519
5003.678,0.70443
5014.477,0.709075
5025.323,0.712188
5036.216,0.712856
5047.156,0.715457
5058.143,0.717991
5069.179,0.72058
5080.262,0.725449
5091.394,0.727553
5102.574,0.729409
5113.804,0.732223
5125.083,0.73449
5136.412,0.739026
5147.791,0.745307
5159.22,0.743874
5170.7,0.745858
5182.231,0.748761
5193.814,0.754049
5205.448,0.760655
5217.134,0.762534
5228.873,0.761865
5240.665,0.766103
5252.51,0.7671404
5264.408,0.770405
5276.36,0.775397
5288.367,0.780603
5300.428,0.781276
5312.544,0.782287
5324.715,0.785409
5336.942,0.7902
5349.226,0.802022
5361.566,0.797728
5373.962,0.797314
5386.417,0.799413
5398.928,0.802283
5411.498,0.811466
5424.127,0.819933
5436.814,0.814086
5449.561,0.818739
5462.368,0.832435
5475.234,0.838648
5488.162,0.838682
5501.15,0.838578
5514.2,0.856946
5527.312,0.878211
5540.486,0.893158
5553.723,0.817022
5567.023,0.663064
5580.387,0.679775
5593.815,0.744503
5607.307,0.769172
5620.865,0.786155
5634.489,0.798165
5648.178,0.801954
5661.934,0.8016075
5675.757,0.811209
5689.647,0.8145099
5703.606,0.819863
5717.633,0.827557
5731.729,0.830519
5745.894,0.836041
5760.13,0.8456995
5774.436,0.8473808
5788.813,0.842251
5803.262,0.848477
5817.782,0.8658253
5832.376,0.8628424
5847.043,0.859766
5861.783,0.871487
5876.598,0.884055
5891.488,0.883758
5906.454,0.873584
5921.495,0.879459
5936.613,0.891057
5951.809,0.8845
5967.082,0.888315
5982.433,0.889865
5997.864,0.887874
6013.374,0.889709
6028.964,0.891527
6044.636,0.905799
6060.389,0.901449
6076.224,0.901075
6092.141,0.898796
6108.143,0.909009
6124.228,0.903264
6140.398,0.905491
6156.654,0.909115
6172.996,0.910874
6189.424,0.911839
6205.94,0.910658
6222.544,0.91219
6239.237,0.9133816
6256.02,0.914797
6272.893,0.917352
6289.858,0.917342
6306.914,0.9187533
6324.062,0.922921
6341.304,0.926896
6358.64,0.928522
6376.071,0.929317
6393.598,0.930054
6411.221,0.939889
6428.941,0.93438
6446.759,0.933593
6464.676,0.937196
6482.693,0.944121
6500.81,0.94059
6519.029,0.9420368
6537.35,0.942814
6555.774,0.946539
6574.302,0.949321
6592.934,0.949203
6611.673,0.9518796
6630.518,0.956461
6649.47,0.950744
6668.532,0.953684
6687.702,0.954258
6706.983,0.958189
6726.375,0.955974
6745.879,0.9562497
6765.497,0.960127
6785.229,0.961679
6805.076,0.9600103
6825.039,0.962044
6845.12,0.964757
6865.319,0.966013
6885.637,0.964637
6906.076,0.96577
6926.636,0.965455
6947.319,0.9677
6968.125,0.969009
6989.057,0.97048
7010.114,0.971325
7031.298,0.973956
7052.611,0.975082
7074.052,0.975112
7095.625,0.976227
7117.329,0.977988
7139.166,0.9796703
7161.137,0.980431
7183.244,0.980961
7205.487,0.9824201
7227.869,0.983097
7250.39,0.984515
7273.051,0.986005
7295.854,0.986792
7318.8,0.988268
7341.891,0.989037
7365.128,0.989657
7388.512,0.991498
7412.045,0.993153
7435.728,0.994145
7459.562,0.995545
7483.55,0.996224
7507.692,0.997011
7531.99,0.997855
7556.446,0.998805
7581.061,0.999407
7605.837,0.999699
7630.774,0.0100003
7655.876,0.0100015
7681.143,0.0100119
7706.577,0.0100186
7732.18,0.0100224
7757.953,0.010033
7783.899,0.0100428
7810.018,0.010053
7836.313,0.0100665
7862.786,0.0100807
7889.437,0.0100983
7916.27,0.0101092
7943.285,0.0101174
7970.485,0.0101303
7997.872,0.0101444
8025.448,0.0101544
8053.214,0.0101624
8081.173,0.0101719
8109.326,0.0101785
8137.676,0.0101882
8166.224,0.0101964
8194.973,0.0102069
8223.925,0.0102159
8253.082,0.0102238
8282.446,0.0102349
8312.02,0.0102446
8341.805,0.0102557
8371.804,0.0102634
8402.02,0.0102722
8432.454,0.0102788
8463.109,0.0102859
8493.988,0.0102937
8525.092,0.0102964
8556.425,0.010301
8587.989,0.010305
8619.786,0.0103081
8651.819,0.0103133
8684.091,0.0103192
8716.604,0.0103267
8749.361,0.0103351
8782.365,0.0103433
8815.619,0.0103522
8849.125,0.0103643
8882.887,0.0103718
8916.907,0.0103802
8951.188,0.0103852
8985.733,0.0103872
9020.546,0.0103835
9055.629,0.0103772
9090.986,0.0103718
9126.62,0.0103678
9162.534,0.01035432
9198.731,0.0103442
9235.215,0.0103374
9271.99,0.0103354
9309.058,0.0103323
9346.423,0.0103307
9384.089,0.0103305
9422.06,0.010334
9460.339,0.0103346
9498.929,0.0103376
9537.836,0.0103387
9577.062,0.0103426
9616.612,0.0103468
9656.49,0.0103476
9696.699,0.0103525
9737.244,0.0103553
9778.129,0.0103553
9819.359,0.0103556
9860.938,0.0103603
9902.869,0.0103682
9945.159,0.0103727
9987.811,0.0103722
10030.83,0.0103746
10074.221,0.0103734
10117.988,0.0103752
10162.137,0.0103828
10206.672,0.0103892
10251.6,0.010394
10296.924,0.0103976
10342.65,0.0104019
10388.784,0.0104084
10435.331,0.010411
10482.296,0.0104093
10529.686,0.0104086
10577.505,0.010409
10625.761,0.0104112
10674.458,0.0104107
10723.604,0.01041
10773.203,0.0104152
10823.264,0.0104147
10873.791,0.0104136
10924.791,0.0104146
10976.272,0.0104154
11028.24,0.0104153
11080.702,0.0104118
11133.665,0.0104034
11187.137,0.0103987
11241.124,0.010393
11295.634,0.0103927
11350.675,0.0103924
11406.254,0.0103865
11462.38,0.0103809
11519.06,0.0103737
11576.304,0.0103659
11634.118,0.0103627
11692.513,0.0103596
11751.496,0.0103588
11811.077,0.01036
11871.265,0.0103653
11932.068,0.010369
11993.497,0.0103692
12055.562,0.0103726
12118.271,0.0103724
12181.636,0.010371
12245.667,0.0103691
12310.373,0.0103665
12375.767,0.0103606
12441.859,0.0103519
12508.659,0.0103499
12576.18,0.0103483
12644.434,0.0103421
12713.432,0.0103414
12783.187,0.0103431
12853.71,0.0103436
12925.016,0.0103434
12997.116,0.010348
13070.025,0.0103576
13143.756,0.0103619
13218.322,0.0103631
13293.74,0.010366
13370.021,0.0103668
13447.183,0.0103646
13525.24,0.0103631
13604.208,0.0103571
13684.103,0.0103435
13764.941,0.0103231
13846.739,0.0103141
13929.515,0.0103115
14013.285,0.0103026
14098.068,0.0102931
14183.883,0.0102825
14270.749,0.0102664
14358.684,0.0102674
14447.709,0.0102556
14537.844,0.0102303
14629.109,0.010216
14721.528,0.0102002
14815.121,0.0101841
14909.91,0.0101072
15005.92,0.0100719
15103.173,0.0100623
15201.695,0.998274
15301.509,0.984621
15402.642,0.965915
15505.12,0.941391
15608.97,0.9086001
15714.22,0.858349
15820.897,0.802786
15929.033,0.757308
15965.407,0.731265