File: csv_library/FTIR_LNR_3_11.csv
Database of Origin,University of Winnipeg Spectrophotometer Facility
Sample Description,Lunar samples/ analogues and glasses - D and P 102F FTIR spectra (from PSF) NASA Apollo lunar samples
Other Information,diffuse gold puck 100 spectra averaged
Date Added,2018-07-23 21:03:11.6432

Data ID,FTIR_LNR_3_11
Sample ID,apollo 16 ID# 64801 175 4
Grain Size,<1mm?
Viewing Geometry,i=30/ e=0
Resolution,3 cm-1
Composition,regolith sample

Wavelength
2.001142,0.265296
2.003474,0.264363
2.005812,0.264209
2.008155,0.2642128
2.010504,0.264513
2.012858,0.263948
2.015217,0.264848
2.017582,0.26446
2.019952,0.264042
2.022328,0.264434
2.024709,0.26468
2.027096,0.264815
2.029488,0.264135
2.031886,0.264372
2.034289,0.264777
2.036698,0.264677
2.039113,0.264692
2.041533,0.264595
2.043959,0.264467
2.046391,0.264813
2.048828,0.265289
2.051271,0.265948
2.05372,0.265577
2.056175,0.266645
2.058635,0.26595
2.061101,0.266577
2.063573,0.266818
2.066051,0.267127
2.068534,0.26723
2.071024,0.2682
2.073519,0.267952
2.07602,0.267729
2.078528,0.267736
2.081041,0.26801
2.08356,0.26782
2.086085,0.268148
2.088617,0.268801
2.091154,0.268959
2.093697,0.269016
2.096247,0.269328
2.098803,0.269615
2.101364,0.26998
2.103932,0.269677
2.106506,0.269627
2.109087,0.269628
2.111673,0.26993
2.114266,0.268808
2.116865,0.268948
2.119471,0.269386
2.122082,0.269431
2.1247,0.27017
2.127325,0.27103
2.129956,0.270636
2.132593,0.270768
2.135237,0.270663
2.137887,0.270637
2.140544,0.271383
2.143207,0.27128
2.145876,0.270893
2.148553,0.271838
2.151235,0.272132
2.153925,0.272503
2.156621,0.272776
2.159324,0.272584
2.162033,0.273493
2.164749,0.273412
2.167472,0.274929
2.170202,0.274769
2.172938,0.275353
2.175682,0.275964
2.178432,0.276132
2.181189,0.276011
2.183952,0.276111
2.186723,0.276158
2.189501,0.27707
2.192285,0.277016
2.195077,0.277365
2.197876,0.278079
2.200682,0.278189
2.203494,0.278872
2.206314,0.279077
2.209141,0.2801
2.211975,0.280332
2.214817,0.280242
2.217665,0.281074
2.220521,0.282217
2.223384,0.281235
2.226254,0.282369
2.229132,0.281675
2.232017,0.282935
2.23491,0.281502
2.237809,0.281765
2.240717,0.28306
2.243631,0.284043
2.246554,0.284102
2.249483,0.284013
2.252421,0.28466
2.255365,0.285018
2.258318,0.284648
2.261278,0.285737
2.264246,0.286242
2.267221,0.286385
2.270204,0.286917
2.273195,0.287455
2.276194,0.286653
2.279201,0.28777
2.282215,0.28844
2.285237,0.28814
2.288268,0.288801
2.291306,0.288213
2.294352,0.289027
2.297406,0.289043
2.300468,0.28849
2.303539,0.29043
2.306617,0.290548
2.309703,0.289545
2.312798,0.291356
2.315901,0.290892
2.319012,0.291866
2.322131,0.291717
2.325259,0.292064
2.328395,0.292291
2.33154,0.292886
2.334692,0.293167
2.337854,0.294043
2.341023,0.294533
2.344201,0.294393
2.347388,0.294425
2.350583,0.294673
2.353787,0.295494
2.357,0.295678
2.360221,0.295792
2.363451,0.295876
2.36669,0.296889
2.369937,0.297762
2.373194,0.297909
2.376459,0.297763
2.379733,0.298561
2.383016,0.29879
2.386308,0.299273
2.389609,0.299348
2.392919,0.299837
2.396238,0.300346
2.399566,0.300376
2.402903,0.300966
2.40625,0.301207
2.409606,0.301653
2.412971,0.301986
2.416345,0.302383
2.419729,0.302708
2.423122,0.302196
2.426524,0.302842
2.429936,0.302934
2.433358,0.304157
2.436789,0.304223
2.440229,0.304946
2.443679,0.306286
2.447139,0.306332
2.450609,0.30643
2.454088,0.30696
2.457577,0.30719
2.461076,0.307598
2.464585,0.308235
2.468104,0.308819
2.471632,0.309728
2.475171,0.309798
2.47872,0.310623
2.482278,0.311238
2.485847,0.311376
2.489427,0.312412
2.493016,0.312546
2.496615,0.313382
2.500225,0.313489
2.503845,0.314132
2.507476,0.314402
2.511117,0.314562
2.514769,0.315443
2.518431,0.316227
2.522103,0.316872
2.525787,0.317253
2.52948,0.317368
2.533185,0.318368
2.5369,0.319422
2.540627,0.319468
2.544364,0.320784
2.548112,0.32112
2.55187,0.323399
2.55564,0.321444
2.559421,0.323981
2.563213,0.32748
2.567016,0.322721
2.570831,0.324453
2.574656,0.327371
2.578493,0.325456
2.582342,0.329987
2.586201,0.328381
2.590072,0.327271
2.593955,0.341269
2.597849,0.327153
2.601755,0.328861
2.605672,0.335272
2.609601,0.330321
2.613542,0.328907
2.617495,0.334936
2.621459,0.334979
2.625435,0.334429
2.629424,0.335834
2.633424,0.331825
2.637437,0.33029
2.641461,0.332055
2.645498,0.333209
2.649547,0.331178
2.653609,0.334696
2.657682,0.332605
2.661768,0.334968
2.665867,0.346212
2.669978,0.345483
2.674102,0.332852
2.678238,0.339722
2.682387,0.332845
2.686549,0.334233
2.690724,0.331933
2.694911,0.337719
2.699112,0.331339
2.703325,0.331441
2.707552,0.330375
2.711791,0.33463
2.716044,0.325002
2.72031,0.332422
2.724589,0.327147
2.728882,0.317963
2.733188,0.315629
2.737508,0.313905
2.741841,0.316691
2.746188,0.309924
2.750549,0.308983
2.754923,0.312206
2.759311,0.306128
2.763713,0.308426
2.768129,0.306605
2.772559,0.305821
2.777003,0.305505
2.781461,0.304812
2.785934,0.304486
2.79042,0.303632
2.794922,0.302717
2.799437,0.303079
2.803967,0.306346
2.808512,0.30277
2.813071,0.302638
2.817645,0.302316
2.822233,0.303018
2.826837,0.302767
2.831455,0.30232
2.836089,0.302168
2.840737,0.301965
2.845401,0.301364
2.85008,0.302009
2.854774,0.301885
2.859484,0.302284
2.864209,0.301872
2.868949,0.302568
2.873705,0.301929
2.878477,0.302403
2.883265,0.301403
2.888068,0.301346
2.892887,0.301817
2.897723,0.301613
2.902574,0.301923
2.907441,0.300968
2.912325,0.301009
2.917225,0.302249
2.922142,0.301093
2.927075,0.300435
2.932024,0.300514
2.93699,0.301884
2.941973,0.302717
2.946973,0.303452
2.951989,0.300696
2.957023,0.303584
2.962073,0.301253
2.967141,0.301817
2.972226,0.301826
2.977328,0.304503
2.982448,0.30216
2.987586,0.302495
2.99274,0.305135
2.997913,0.303794
3.003103,0.305233
3.008312,0.304112
3.013538,0.305189
3.018782,0.304951
3.024044,0.304982
3.029325,0.306608
3.034624,0.310079
3.039942,0.307262
3.045278,0.30901
3.050632,0.307435
3.056006,0.308046
3.061398,0.308635
3.066809,0.310452
3.072239,0.309019
3.077689,0.309675
3.083157,0.310737
3.088645,0.311498
3.094153,0.311175
3.099679,0.312064
3.105226,0.31083
3.110792,0.311541
3.116378,0.311758
3.121985,0.310983
3.127611,0.311713
3.133257,0.311824
3.138924,0.312441
3.144611,0.313171
3.150319,0.313276
3.156047,0.31347
3.161796,0.314223
3.167566,0.314425
3.173356,0.315065
3.179168,0.316259
3.185001,0.315693
3.190856,0.315909
3.196731,0.317652
3.202629,0.317172
3.208548,0.317401
3.214488,0.320884
3.220451,0.320635
3.226436,0.320945
3.232443,0.319588
3.238472,0.320203
3.244523,0.321226
3.250598,0.321689
3.256694,0.324106
3.262814,0.321029
3.268956,0.322915
3.275122,0.322056
3.28131,0.322818
3.287522,0.32406
3.293757,0.323844
3.300016,0.324966
3.306299,0.326442
3.312605,0.325296
3.318936,0.325913
3.32529,0.327312
3.331669,0.329193
3.338072,0.327017
3.344499,0.32819
3.350952,0.329714
3.357429,0.328067
3.363931,0.330409
3.370458,0.331167
3.37701,0.331289
3.383588,0.332556
3.390191,0.3329
3.39682,0.334299
3.403475,0.335466
3.410156,0.336672
3.416862,0.337759
3.423596,0.340477
3.430355,0.338937
3.437141,0.339488
3.443954,0.343171
3.450794,0.339689
3.457661,0.340104
3.464556,0.342177
3.471477,0.341706
3.478426,0.342663
3.485403,0.343705
3.492408,0.347883
3.499441,0.346571
3.506502,0.348611
3.513592,0.349055
3.52071,0.349038
3.527857,0.3492263
3.535032,0.353226
3.542237,0.35188
3.549471,0.352285
3.556735,0.354109
3.564028,0.355318
3.571351,0.357037
3.578704,0.358159
3.586088,0.360688
3.593501,0.360429
3.600946,0.362327
3.608421,0.362839
3.615926,0.365017
3.623463,0.365318
3.631032,0.366432
3.638632,0.367817
3.646263,0.368873
3.653927,0.371047
3.661623,0.371974
3.669351,0.374159
3.677111,0.375832
3.684905,0.378464
3.692731,0.379228
3.70059,0.381478
3.708483,0.383361
3.716409,0.385601
3.72437,0.38697
3.732364,0.389418
3.740392,0.391772
3.748455,0.394455
3.756553,0.396047
3.764685,0.398627
3.772853,0.40081
3.781056,0.40371
3.789294,0.405534
3.797568,0.407909
3.805879,0.410703
3.814225,0.412813
3.822609,0.415168
3.831029,0.417598
3.839486,0.419459
3.84798,0.422496
3.856512,0.424581
3.865081,0.426904
3.873689,0.429498
3.882334,0.432334
3.891019,0.434787
3.899742,0.43738
3.908504,0.440227
3.917305,0.442571
3.926146,0.445579
3.935027,0.448673
3.943948,0.451613
3.952909,0.454847
3.961911,0.458454
3.970954,0.462509
3.980038,0.465731
3.989163,0.468772
3.99833,0.471745
4.00754,0.474465
4.016791,0.477496
4.026086,0.48055
4.035423,0.484497
4.044804,0.487996
4.054228,0.492178
4.063695,0.496065
4.073207,0.500918
4.082764,0.505124
4.092365,0.509601
4.102012,0.514189
4.111703,0.519278
4.121441,0.524655
4.131224,0.528618
4.141054,0.534637
4.150931,0.540099
4.160854,0.545634
4.170826,0.551172
4.180844,0.556476
4.190911,0.562507
4.201026,0.568798
4.21119,0.576122
4.221404,0.584522
4.231666,0.592085
4.241979,0.598347
4.252341,0.601324
4.262754,0.606985
4.273219,0.61523
4.283734,0.622681
4.294301,0.627538
4.30492,0.63511
4.315592,0.64103
4.326317,0.647721
4.337095,0.65304
4.347926,0.660298
4.358811,0.669802
4.369751,0.676854
4.380746,0.684669
4.391796,0.691895
4.402902,0.701686
4.414064,0.709473
4.425282,0.717874
4.436558,0.725303
4.447891,0.732876
4.459281,0.739744
4.47073,0.74657
4.482238,0.75137
4.493805,0.757451
4.505431,0.764715
4.517118,0.769462
4.528865,0.773359
4.540674,0.778528
4.552543,0.786004
4.564475,0.789317
4.57647,0.796393
4.588527,0.803515
4.600648,0.807231
4.612833,0.812871
4.625082,0.817713
4.637397,0.823879
4.649777,0.829539
4.662223,0.836358
4.674735,0.843077
4.687315,0.850486
4.699962,0.857313
4.712678,0.865348
4.725463,0.87281
4.738316,0.880465
4.75124,0.887943
4.764234,0.895268
4.777299,0.902557
4.790436,0.909212
4.803645,0.914671
4.816927,0.92106
4.830283,0.925853
4.843712,0.92988
4.857216,0.935983
4.870795,0.939012
4.884451,0.940178
4.898182,0.945548
4.911991,0.948812
4.925878,0.951666
4.939844,0.955091
4.953888,0.958741
4.968013,0.9615924
4.982218,0.964725
4.996504,0.967967
5.010872,0.971432
5.025323,0.975544
5.039857,0.978281
5.054475,0.980951
5.069179,0.984183
5.083967,0.988599
5.098842,0.990937
5.113804,0.994437
5.128854,0.998228
5.143992,0.0100171
5.15922,0.0100397
5.174538,0.0100664
5.189947,0.010107
5.205448,0.0101491
5.221041,0.0101796
5.236728,0.0102198
5.25251,0.0102509
5.268386,0.0102869
5.284358,0.0103237
5.300428,0.01036
5.316595,0.0103967
5.33286,0.0104325
5.349226,0.0105066
5.365692,0.0105316
5.382259,0.0106034
5.398928,0.0107036
5.415701,0.0108785
5.432579,0.0110867
5.449561,0.0115114
5.46665,0.0124542
5.483846,0.0146052
5.50115,0.0211093
5.518564,0.742705
5.536087,0.442505
5.553723,0.588825
5.57147,0.678576
5.589332,0.736154
5.607307,0.773278
5.625399,0.803405
5.643607,0.816349
5.661934,0.840553
5.680379,0.85347
5.698945,0.866732
5.717633,0.874927
5.736443,0.886861
5.755377,0.894428
5.774436,0.900476
5.793621,0.908559
5.812934,0.914936
5.832376,0.921045
5.851948,0.927181
5.871652,0.930465
5.891488,0.933472
5.911459,0.947102
5.931565,0.941577
5.951809,0.960975
5.97219,0.95859
5.992711,0.961738
6.013374,0.962774
6.034179,0.969912
6.055129,0.963968
6.076224,0.964453
6.097466,0.972764
6.118857,0.969683
6.140398,0.973453
6.162091,0.977097
6.183938,0.973937
6.20594,0.989796
6.228099,0.996146
6.250416,0.0100027
6.272893,0.0100465
6.295533,0.0100853
6.318336,0.0101058
6.341304,0.0100192
6.36444,0.010126
6.387745,0.0102007
6.411221,0.997906
6.434869,0.0102117
6.458693,0.0102693
6.482693,0.0101572
6.506872,0.0103462
6.531231,0.010405
6.555774,0.0103878
6.580501,0.0104174
6.605415,0.0104697
6.630518,0.0103628
6.655812,0.0105694
6.6813,0.01055
6.706983,0.0105646
6.732864,0.010636
6.758945,0.0106602
6.785229,0.0105953
6.811718,0.0106883
6.838413,0.0107448
6.865319,0.0106812
6.892437,0.0107598
6.919769,0.0107959
6.947319,0.0107824
6.975089,0.0108642
7.003081,0.0108838
7.031298,0.0108651
7.059743,0.0109336
7.088419,0.0109503
7.117329,0.0109524
7.146475,0.0109597
7.17586,0.0110032
7.205487,0.0110041
7.23536,0.0110426
7.265481,0.0110573
7.295854,0.0110924
7.326481,0.0110975
7.357366,0.0111389
7.388512,0.0111561
7.419922,0.0111804
7.451601,0.0111964
7.48355,0.011232
7.515774,0.0112477
7.548277,0.0112656
7.581061,0.0112844
7.614131,0.0113088
7.647491,0.0113283
7.681143,0.0113536
7.715093,0.0113672
7.749343,0.0113914
7.783899,0.0114154
7.818764,0.011433
7.853942,0.0114485
7.889437,0.0114673
7.925254,0.0114796
7.961398,0.0115247
7.997872,0.0115527
8.034682,0.0115876
8.071832,0.011612
8.109326,0.0116376
8.147169,0.011666
8.185368,0.0116911
8.223925,0.0117183
8.262847,0.0117429
8.302139,0.0117642
8.341805,0.0117801
8.381852,0.0117913
8.422285,0.0118149
8.463109,0.0118323
8.504331,0.0118587
8.545955,0.0118773
8.587989,0.0118922
8.630437,0.0119037
8.673307,0.0119176
8.716604,0.0119253
8.760335,0.0119345
8.804507,0.0119442
8.849125,0.011946
8.894198,0.0119441
8.939732,0.0119438
8.985733,0.0119582
9.03221,0.0119678
9.07917,0.0119664
9.12662,0.0119743
9.174568,0.0119637
9.223022,0.0119733
9.27199,0.0119843
9.32148,0.0119898
9.3715,0.011997
9.42206,0.0120178
9.473167,0.0120045
9.524832,0.0119971
9.577062,0.0120001
9.629868,0.011994
9.683259,0.0119972
9.737244,0.0119903
9.791834,0.0119882
9.847039,0.0119867
9.902869,0.0119963
9.959336,0.0119991
10.0164,0.0119975
10.0742,0.0119932
10.1327,0.0119859
10.1918,0.0119789
10.2516,0.0119673
10.3121,0.0119559
10.37336,0.0119445
10.4353,0.0119374
10.498,0.0119293
10.5615,0.0119222
10.6258,0.0119142
10.69079,0.0119024
10.7566,0.0118983
10.8233,0.0118977
10.8907,0.0118867
10.9591,0.0118735
11.02824,0.0118656
11.0983,0.0118521
11.1693,0.011839
11.2411,0.01182
11.3139,0.0118079
11.3877,0.0117915
11.46238,0.0117584
11.5381,0.0117569
11.6148,0.0117347
11.6925,0.0117152
11.77129,0.0116997
11.8511,0.0116742
11.9321,0.0116396
12.0141,0.0116252
12.0973,0.0115921
12.1816,0.0115873
12.26716,0.0115596
12.3539,0.0115329
12.4419,0.011524
12.5311,0.0114997
12.6216,0.0115085
12.7134,0.0115148
12.8066,0.0115051
12.9012,0.0114903
12.9971,0.0114658
13.09451,0.0114377
13.1934,0.0114037
13.29374,0.0113756
13.3956,0.0113587
13.4991,0.0113222
13.6042,0.01125
13.7109,0.0112465
13.8194,0.0112086
13.9295,0.011166
14.0414,0.0111045
14.1552,0.0110649
14.2707,0.0109872
14.3882,0.0109179
14.5077,0.0108031
14.6291,0.0106727
14.7526,0.0105075
14.8782,0.0102811
15.00592,0.0100301
15.1359,0.952508
15.2681,0.884403
15.4026,0.8140169
15.5396,0.705427
15.679,0.570992
15.8209,0.478849
15.9654,0.397165