File: csv_library/FTIR_CLAY_10.csv
Database of Origin,University of Winnipeg Spectrophotometer Facility
Sample Description,See Master Clays in HOSERLab database
Date Added,2016-12-11 20:56:55.2818

Data ID,FTIR_CLAY_10
Sample ID,MIN002
Mineral Name,Minnesotaite
Grain Size,<45 m
Viewing Geometry,35/0
Resolution,11-72 nm
Material Class,Phyllosilicate

Wavelength
2001.142,0.155975
2003.474,0.155929
2005.812,0.154962
2008.155,0.15469
2010.504,0.154665
2012.858,0.154615
2015.217,0.1544717
2017.582,0.154778
2019.952,0.154456
2022.328,0.153584
2024.709,0.153404
2027.096,0.153512
2029.488,0.153185
2031.886,0.153218
2034.289,0.152816
2036.698,0.152911
2039.113,0.153166
2041.533,0.153197
2043.959,0.1529713
2046.391,0.152928
2048.828,0.152917
2051.271,0.152268
2053.72,0.152215
2056.175,0.152191
2058.635,0.151822
2061.101,0.150966
2063.573,0.150754
2066.051,0.150833
2068.534,0.150096
2071.024,0.149544
2073.519,0.14949
2076.02,0.149255
2078.528,0.148951
2081.041,0.148546
2083.56,0.148464
2086.085,0.1479548
2088.617,0.148138
2091.154,0.147807
2093.697,0.147826
2096.247,0.14773
2098.803,0.147049
2101.364,0.147153
2103.932,0.146021
2106.506,0.145822
2109.087,0.145809
2111.673,0.145285
2114.266,0.144493
2116.865,0.144373
2119.471,0.1440078
2122.082,0.14368
2124.7,0.143711
2127.325,0.1441111
2129.956,0.143762
2132.593,0.143297
2135.237,0.142554
2137.887,0.141702
2140.544,0.142366
2143.207,0.141801
2145.876,0.141503
2148.553,0.141298
2151.235,0.14143
2153.925,0.140851
2156.621,0.141343
2159.324,0.140685
2162.033,0.141219
2164.749,0.141032
2167.472,0.14092
2170.202,0.140877
2172.938,0.140288
2175.682,0.1398125
2178.432,0.139322
2181.189,0.139576
2183.952,0.139196
2186.723,0.138951
2189.501,0.138427
2192.285,0.13825
2195.077,0.1385033
2197.876,0.137921
2200.682,0.137716
2203.494,0.13748
2206.314,0.137068
2209.141,0.136808
2211.975,0.1365982
2214.817,0.136655
2217.665,0.1371195
2220.521,0.13655
2223.384,0.135775
2226.254,0.13579
2229.132,0.13559
2232.017,0.135389
2234.91,0.134907
2237.809,0.13387
2240.717,0.133885
2243.631,0.133747
2246.554,0.133604
2249.483,0.133105
2252.421,0.133361
2255.365,0.133296
2258.318,0.132504
2261.278,0.132046
2264.246,0.132027
2267.221,0.131335
2270.204,0.13128
2273.195,0.131494
2276.194,0.130743
2279.201,0.130477
2282.215,0.130794
2285.237,0.130076
2288.268,0.129932
2291.306,0.129919
2294.352,0.129826
2297.406,0.129298
2300.468,0.129115
2303.539,0.129016
2306.617,0.128901
2309.703,0.128706
2312.798,0.128224
2315.901,0.1279
2319.012,0.127583
2322.131,0.127333
2325.259,0.127024
2328.395,0.127086
2331.54,0.126542
2334.692,0.126803
2337.854,0.126399
2341.023,0.125929
2344.201,0.125991
2347.388,0.125778
2350.583,0.1256
2353.787,0.125595
2357.0,0.125729
2360.221,0.125621
2363.451,0.12534
2366.69,0.125235
2369.937,0.125829
2373.194,0.125869
2376.459,0.125928
2379.733,0.126147
2383.016,0.126013
2386.308,0.125849
2389.609,0.126303
2392.919,0.126084
2396.238,0.126141
2399.566,0.125716
2402.903,0.125586
2406.25,0.125449
2409.606,0.12498
2412.971,0.124634
2416.345,0.124629
2419.729,0.124273
2423.122,0.124388
2426.524,0.12412
2429.936,0.124249
2433.358,0.123904
2436.789,0.123994
2440.229,0.1238186
2443.679,0.123623
2447.139,0.123831
2450.609,0.123529
2454.088,0.123348
2457.577,0.123103
2461.076,0.122559
2464.585,0.122538
2468.104,0.122353
2471.632,0.1221795
2475.171,0.122225
2478.72,0.122156
2482.278,0.121759
2485.847,0.121942
2489.427,0.122223
2493.016,0.122241
2496.615,0.122395
2500.225,0.122266
2503.845,0.122437
2507.476,0.122106
2511.117,0.122155
2514.769,0.121807
2518.431,0.121859
2522.103,0.122648
2525.787,0.1225536
2529.48,0.122459
2533.185,0.123565
2536.9,0.123503
2540.627,0.123349
2544.364,0.124173
2548.112,0.123949
2551.87,0.125175
2555.64,0.122559
2559.421,0.126166
2563.213,0.130835
2567.016,0.125017
2570.831,0.126425
2574.656,0.1284594
2578.493,0.1253312
2582.342,0.130028
2586.201,0.13026
2590.072,0.126948
2593.955,0.139006
2597.849,0.128273
2601.755,0.128591
2605.672,0.134243
2609.601,0.128011
2613.542,0.126909
2617.495,0.13452
2621.459,0.128824
2625.435,0.127102
2629.424,0.133247
2633.424,0.129666
2637.437,0.124695
2641.461,0.125821
2645.498,0.127669
2649.547,0.125119
2653.609,0.128887
2657.682,0.127836
2661.768,0.130632
2665.867,0.141988
2669.978,0.142877
2674.102,0.133583
2678.238,0.139479
2682.387,0.127593
2686.549,0.130428
2690.724,0.126837
2694.911,0.134503
2699.112,0.12538
2703.325,0.124286
2707.552,0.123819
2711.791,0.126346
2716.044,0.111936
2720.31,0.118539
2724.589,0.109549
2728.882,0.09218404
2733.188,0.08355105
2737.508,0.07516019
2741.841,0.07015754
2746.188,0.05904167
2750.549,0.05581437
2754.923,0.0556168
2759.311,0.05123462
2763.713,0.0507318
2768.129,0.04995183
2772.559,0.04960765
2777.003,0.04922565
2781.461,0.04923733
2785.934,0.04921373
2790.42,0.04897642
2794.922,0.04914787
2799.437,0.04942801
2803.967,0.05010636
2808.512,0.05030541
2813.071,0.05061428
2817.645,0.0511427
2822.233,0.05168262
2826.837,0.05228609
2831.455,0.05297142
2836.089,0.05335389
2840.737,0.05352938
2845.401,0.05483115
2850.08,0.0539981
2854.774,0.05392956
2859.484,0.054006
2864.209,0.05499614
2868.949,0.05464031
2873.705,0.05441972
2878.477,0.0543958
2883.265,0.05440488
2888.068,0.05450527
2892.887,0.05499088
2897.723,0.05414092
2902.574,0.05338461
2907.441,0.05356741
2912.325,0.05344396
2917.225,0.054752
2922.142,0.05446987
2927.075,0.05326217
2932.024,0.05329322
2936.99,0.05412643
2941.973,0.05425479
2946.973,0.05619657
2951.989,0.05493383
2957.023,0.05601521
2962.073,0.05433776
2967.141,0.05470003
2972.226,0.05548484
2977.328,0.05813354
2982.448,0.05618167
2987.586,0.05591617
2992.74,0.05822911
2997.913,0.05747956
3003.103,0.05896946
3008.312,0.05805394
3013.538,0.05891024
3018.782,0.05920448
3024.044,0.05916872
3029.325,0.061918
3034.624,0.0639654
3039.942,0.0615868
3045.278,0.06371908
3050.632,0.06241866
3056.006,0.0624189
3061.398,0.06396028
3066.809,0.06557401
3072.239,0.06391795
3077.689,0.06483387
3083.157,0.06514591
3088.645,0.06636228
3094.153,0.06571134
3099.679,0.06730402
3105.226,0.06671983
3110.792,0.06633468
3116.378,0.06667693
3121.985,0.06727652
3127.611,0.06742537
3133.257,0.06754777
3138.924,0.06796735
3144.611,0.06871617
3150.319,0.06878408
3156.047,0.06941874
3161.796,0.06948295
3167.566,0.06982739
3173.356,0.07024245
3179.168,0.07249528
3185.001,0.07265526
3190.856,0.07236548
3196.731,0.07409743
3202.629,0.07312124
3208.548,0.07337579
3214.488,0.07778707
3220.451,0.07754857
3226.436,0.07573865
3232.443,0.07531253
3238.472,0.0756769
3244.523,0.0769897
3250.598,0.07873505
3256.694,0.08070447
3262.814,0.0776287
3268.956,0.07859375
3275.122,0.07794012
3281.31,0.07802685
3287.522,0.07941559
3293.757,0.08052515
3300.016,0.08065359
3306.299,0.08031914
3312.605,0.07912279
3318.936,0.07954112
3325.29,0.08138042
3331.669,0.08178179
3338.072,0.07672043
3344.499,0.07651471
3350.952,0.0775986
3357.429,0.07590853
3363.931,0.07752735
3370.458,0.07777789
3377.01,0.07659874
3383.588,0.07669938
3390.191,0.0772191
3396.82,0.07896669
3403.475,0.08070016
3410.156,0.08041331
3416.862,0.07867347
3423.596,0.08100659
3430.355,0.08032453
3437.141,0.08205909
3443.954,0.08537391
3450.794,0.08168984
3457.661,0.08135587
3464.556,0.0819444
3471.477,0.08072376
3478.426,0.08084636
3485.403,0.08170527
3492.408,0.08507335
3499.441,0.08294044
3506.502,0.08419948
3513.592,0.08489306
3520.71,0.08606537
3527.857,0.08713281
3535.032,0.09062279
3542.237,0.08916871
3549.471,0.08948406
3556.735,0.09069303
3564.028,0.0914202
3571.351,0.09319942
3578.704,0.09333359
3586.088,0.0955136
3593.501,0.09580647
3600.946,0.09629473
3608.421,0.09560492
3615.926,0.0976371
3623.463,0.09706194
3631.032,0.09730325
3638.632,0.09784343
3646.263,0.09868917
3653.927,0.09981506
3661.623,0.09958544
3669.351,0.100344
3677.111,0.101144
3684.905,0.102813
3692.731,0.102154
3700.59,0.102722
3708.483,0.103535
3716.409,0.104136
3724.37,0.104952
3732.364,0.105671
3740.392,0.106941
3748.455,0.108578
3756.553,0.108803
3764.685,0.109149
3772.853,0.110375
3781.056,0.111235
3789.294,0.111772
3797.568,0.112652
3805.879,0.11337
3814.225,0.113762
3822.609,0.114559
3831.029,0.114947
3839.486,0.115753
3847.98,0.11688
3856.512,0.117599
3865.081,0.118753
3873.689,0.120211
3882.334,0.121754
3891.019,0.123331
3899.742,0.124552
3908.504,0.125625
3917.305,0.126939
3926.146,0.128253
3935.027,0.128893
3943.948,0.12959
3952.909,0.129868
3961.911,0.13123
3970.954,0.133374
3980.038,0.13564
3989.163,0.1381679
3998.33,0.140679
4007.54,0.142734
4016.791,0.144866
4026.086,0.147722
4035.423,0.151542
4044.804,0.155552
4054.228,0.159712
4063.695,0.163458
4073.207,0.166953
4082.764,0.170359
4092.365,0.173386
4102.012,0.1764692
4111.703,0.179333
4121.441,0.182572
4131.224,0.185689
4141.054,0.188553
4150.931,0.1917776
4160.854,0.195079
4170.826,0.198323
4180.844,0.201843
4190.911,0.206432
4201.026,0.2168745
4211.19,0.238348
4221.404,0.26498
4231.666,0.286888
4241.979,0.29428
4252.341,0.275663
4262.754,0.271032
4273.219,0.29115
4283.734,0.292375
4294.301,0.29399
4304.92,0.291498
4315.592,0.285602
4326.317,0.280347
4337.095,0.276159
4347.926,0.2745816
4358.811,0.275301
4369.751,0.277131
4380.746,0.279535
4391.796,0.284042
4402.902,0.288749
4414.064,0.29332
4425.282,0.297267
4436.558,0.301573
4447.891,0.305917
4459.281,0.3103656
4470.73,0.314891
4482.238,0.319107
4493.805,0.323333
4505.431,0.327686
4517.118,0.332108
4528.865,0.3363509
4540.674,0.3406541
4552.543,0.345133
4564.475,0.349764
4576.47,0.353678
4588.527,0.357877
4600.648,0.362249
4612.833,0.366866
4625.082,0.371269
4637.397,0.375762
4649.777,0.380436
4662.223,0.385288
4674.735,0.390499
4687.315,0.395189
4699.962,0.399795
4712.678,0.404781
4725.463,0.410174
4738.316,0.415046
4751.24,0.419898
4764.234,0.424835
4777.299,0.429838
4790.436,0.4354726
4803.645,0.439725
4816.927,0.4443324
4830.283,0.448404
4843.712,0.454271
4857.216,0.457039
4870.795,0.461126
4884.451,0.46498
4898.182,0.470295
4911.991,0.473139
4925.878,0.477328
4939.844,0.4817253
4953.888,0.488437
4968.013,0.490434
4982.218,0.493877
4996.504,0.497822
5010.872,0.503622
5025.323,0.511622
5039.857,0.510245
5054.475,0.513853
5069.179,0.518068
5083.967,0.526753
5098.842,0.5263682
5113.804,0.530759
5128.854,0.534433
5143.992,0.547281
5159.22,0.544045
5174.538,0.547042
5189.947,0.55267
5205.448,0.566089
5221.041,0.5650477
5236.728,0.569371
5252.51,0.569327
5268.386,0.575051
5284.358,0.584268
5300.428,0.586252
5316.595,0.58618
5332.86,0.5901336
5349.226,0.6173372
5365.692,0.602401
5382.259,0.60364
5398.928,0.607148
5415.701,0.632541
5432.579,0.626024
5449.561,0.626489
5466.65,0.6518386
5483.846,0.644487
5501.15,0.637622
5518.564,0.652658
5536.087,0.656788
5553.723,0.693963
5571.47,0.587676
5589.332,0.591113
5607.307,0.609804
5625.399,0.622546
5643.607,0.64909
5661.934,0.6405596
5680.379,0.652177
5698.945,0.6574188
5717.633,0.679191
5736.443,0.677476
5755.377,0.686807
5774.436,0.694281
5793.621,0.677553
5812.934,0.707413
5832.376,0.711379
5851.948,0.706896
5871.652,0.7346
5891.488,0.743291
5911.459,0.717771
5931.565,0.755009
5951.809,0.733054
5972.19,0.745199
5992.711,0.744041
6013.374,0.738094
6034.179,0.752811
6055.129,0.776656
6076.224,0.763008
6097.466,0.757753
6118.857,0.765928
6140.398,0.761171
6162.091,0.767468
6183.938,0.774679
6205.94,0.762853
6228.099,0.765223
6250.416,0.76607
6272.893,0.770272
6295.533,0.771157
6318.336,0.775814
6341.304,0.798636
6364.44,0.799454
6387.745,0.798535
6411.221,0.844989
6434.869,0.813125
6458.693,0.814417
6482.693,0.8543
6506.872,0.828658
6531.231,0.825286
6555.774,0.84451
6580.501,0.850016
6605.415,0.83887
6630.518,0.868501
6655.812,0.833723
6681.3,0.839867
6706.983,0.850627
6732.864,0.833708
6758.945,0.840736
6785.229,0.859606
6811.718,0.844633
6838.413,0.8534669
6865.319,0.866344
6892.437,0.849971
6919.769,0.846045
6947.319,0.8606748
6975.089,0.859255
7003.081,0.85967
7031.298,0.873428
7059.743,0.866353
7088.419,0.864323
7117.329,0.870158
7146.475,0.881749
7175.86,0.876873
7205.487,0.880417
7235.36,0.877732
7265.481,0.887206
7295.854,0.885092
7326.481,0.893436
7357.366,0.889819
7388.512,0.891012
7419.922,0.892866
7451.601,0.902948
7483.55,0.899556
7515.774,0.900098
7548.277,0.9031759
7581.061,0.907573
7614.131,0.907883
7647.491,0.908558
7681.143,0.910537
7715.093,0.912676
7749.343,0.915204
7783.899,0.916491
7818.764,0.918346
7853.942,0.921351
7889.437,0.923398
7925.254,0.926019
7961.398,0.927457
7997.872,0.929467
8034.682,0.9318501
8071.832,0.933258
8109.326,0.935548
8147.169,0.937386
8185.368,0.938963
8223.925,0.940869
8262.847,0.9419968
8302.139,0.943663
8341.805,0.945263
8381.852,0.94672
8422.285,0.948331
8463.109,0.949658
8504.331,0.951364
8545.955,0.952651
8587.989,0.953995
8630.437,0.955512
8673.307,0.956808
8716.604,0.958351
8760.335,0.959618
8804.507,0.961177
8849.125,0.962205
8894.198,0.963713
8939.732,0.964939
8985.733,0.9661271
9032.21,0.966755
9079.17,0.967304
9126.62,0.967861
9174.568,0.967823
9223.022,0.967997
9271.99,0.968122
9321.48,0.968181
9371.5,0.96887
9422.06,0.969105
9473.167,0.969906
9524.832,0.970567
9577.062,0.971273
9629.868,0.971977
9683.259,0.972541
9737.244,0.973178
9791.834,0.973843
9847.039,0.9749197
9902.869,0.975521
9959.336,0.976165
10016.449,0.977097
10074.221,0.9778326
10132.662,0.978574
10191.784,0.979343
10251.6,0.980011
10312.121,0.9808265
10373.36,0.981584
10435.331,0.9820508
10498.045,0.982458
10561.517,0.982801
10625.761,0.982967
10690.79,0.983165
10756.619,0.98367
10823.264,0.983933
10890.738,0.984261
10959.058,0.984341
11028.24,0.984575
11098.301,0.9842544
11169.256,0.984367
11241.124,0.9846453
11313.921,0.984992
11387.667,0.984871
11462.38,0.985155
11538.079,0.985214
11614.783,0.985361
11692.513,0.985527
11771.29,0.985812
11851.134,0.985946
11932.068,0.986164
12014.114,0.986143
12097.296,0.986332
12181.636,0.986141
12267.16,0.985907
12353.892,0.986027
12441.859,0.9863768
12531.086,0.986533
12621.601,0.98673
12713.432,0.986856
12806.608,0.987194
12901.159,0.987393
12997.116,0.987871
13094.51,0.9873376
13193.373,0.987433
13293.74,0.987589
13395.644,0.987564
13499.121,0.9873442
13604.208,0.986853
13710.943,0.9874938
13819.365,0.986582
13929.515,0.985976
14041.433,0.984917
14155.163,0.983698
14270.749,0.981523
14388.237,0.980218
14507.674,0.97744
14629.109,0.973174
14752.594,0.966137
14878.179,0.959504
15005.92,0.947287
15135.871,0.925567
15268.092,0.8926
15402.642,0.845001
15539.583,0.783249
15678.979,0.698736
15820.897,0.618426
15965.407,0.536841