File: csv_library/FTIR_LNR_3_6.csv
Database of Origin,University of Winnipeg Spectrophotometer Facility
Sample Description,Lunar samples/ analogues and glasses - D and P 102F FTIR spectra (from PSF) NASA Apollo lunar samples
Other Information,diffuse gold puck 100 spectra averaged
Date Added,2018-07-23 21:03:11.4873

Data ID,FTIR_LNR_3_6
Sample ID,apollo 17 ID# 71061 14 5
Grain Size,<1mm?
Viewing Geometry,i=30/ e=0
Resolution,3 cm-1
Composition,regolith sample

Wavelength
2.001142,0.232972
2.003474,0.233021
2.005812,0.233462
2.008155,0.233755
2.010504,0.233991
2.012858,0.233182
2.015217,0.233719
2.017582,0.234081
2.019952,0.233942
2.022328,0.233691
2.024709,0.233762
2.027096,0.233726
2.029488,0.234011
2.031886,0.23383
2.034289,0.234707
2.036698,0.23499
2.039113,0.235206
2.041533,0.234642
2.043959,0.235089
2.046391,0.235575
2.048828,0.235854
2.051271,0.235313
2.05372,0.236066
2.056175,0.235949
2.058635,0.236591
2.061101,0.236713
2.063573,0.237297
2.066051,0.23726
2.068534,0.236857
2.071024,0.238121
2.073519,0.237995
2.07602,0.238107
2.078528,0.238235
2.081041,0.238613
2.08356,0.238643
2.086085,0.239384
2.088617,0.239815
2.091154,0.239724
2.093697,0.240168
2.096247,0.240684
2.098803,0.240996
2.101364,0.241086
2.103932,0.240836
2.106506,0.240923
2.109087,0.240497
2.111673,0.240829
2.114266,0.241228
2.116865,0.240676
2.119471,0.242279
2.122082,0.241672
2.1247,0.242771
2.127325,0.243291
2.129956,0.243706
2.132593,0.243293
2.135237,0.243471
2.137887,0.243663
2.140544,0.244097
2.143207,0.244291
2.145876,0.243883
2.148553,0.244854
2.151235,0.244421
2.153925,0.245675
2.156621,0.24542
2.159324,0.246277
2.162033,0.246376
2.164749,0.246665
2.167472,0.247437
2.170202,0.248281
2.172938,0.248085
2.175682,0.248313
2.178432,0.2485
2.181189,0.249059
2.183952,0.249263
2.186723,0.249987
2.189501,0.249887
2.192285,0.25006
2.195077,0.249744
2.197876,0.250506
2.200682,0.250816
2.203494,0.251432
2.206314,0.25165
2.209141,0.251641
2.211975,0.251224
2.214817,0.252017
2.217665,0.252967
2.220521,0.253179
2.223384,0.253472
2.226254,0.253138
2.229132,0.253502
2.232017,0.254225
2.23491,0.253617
2.237809,0.253693
2.240717,0.254659
2.243631,0.255916
2.246554,0.256051
2.249483,0.255577
2.252421,0.25549
2.255365,0.256592
2.258318,0.256034
2.261278,0.257296
2.264246,0.257431
2.267221,0.25692
2.270204,0.257661
2.273195,0.258217
2.276194,0.258521
2.279201,0.257637
2.282215,0.258867
2.285237,0.258792
2.288268,0.259957
2.291306,0.259753
2.294352,0.259846
2.297406,0.259712
2.300468,0.260047
2.303539,0.262245
2.306617,0.261345
2.309703,0.261431
2.312798,0.262663
2.315901,0.262322
2.319012,0.262653
2.322131,0.262806
2.325259,0.262279
2.328395,0.263696
2.33154,0.263527
2.334692,0.263881
2.337854,0.264234
2.341023,0.26425
2.344201,0.264984
2.347388,0.265125
2.350583,0.265451
2.353787,0.266192
2.357,0.26645
2.360221,0.266364
2.363451,0.266852
2.36669,0.267124
2.369937,0.267362
2.373194,0.26749
2.376459,0.267826
2.379733,0.268252
2.383016,0.268485
2.386308,0.268975
2.389609,0.26976
2.392919,0.2692767
2.396238,0.269418
2.399566,0.269942
2.402903,0.270106
2.40625,0.27069
2.409606,0.270374
2.412971,0.270902
2.416345,0.271768
2.419729,0.272372
2.423122,0.272042
2.426524,0.272371
2.429936,0.272378
2.433358,0.273344
2.436789,0.273467
2.440229,0.2730543
2.443679,0.275411
2.447139,0.27509
2.450609,0.2752995
2.454088,0.275533
2.457577,0.275998
2.461076,0.276633
2.464585,0.277639
2.468104,0.277529
2.471632,0.277874
2.475171,0.277726
2.47872,0.27853
2.482278,0.278969
2.485847,0.278932
2.489427,0.279368
2.493016,0.279503
2.496615,0.280373
2.500225,0.280313
2.503845,0.280343
2.507476,0.280959
2.511117,0.281336
2.514769,0.281954
2.518431,0.282429
2.522103,0.282894
2.525787,0.282934
2.52948,0.283243
2.533185,0.284435
2.5369,0.285219
2.540627,0.284764
2.544364,0.286121
2.548112,0.286823
2.55187,0.288638
2.55564,0.286723
2.559421,0.288422
2.563213,0.292328
2.567016,0.287232
2.570831,0.289157
2.574656,0.29169
2.578493,0.289789
2.582342,0.293287
2.586201,0.292294
2.590072,0.291655
2.593955,0.302523
2.597849,0.291576
2.601755,0.293147
2.605672,0.298578
2.609601,0.294402
2.613542,0.293187
2.617495,0.298685
2.621459,0.29877
2.625435,0.297105
2.629424,0.298695
2.633424,0.296482
2.637437,0.294881
2.641461,0.296835
2.645498,0.297457
2.649547,0.295782
2.653609,0.29904
2.657682,0.297268
2.661768,0.299587
2.665867,0.308923
2.669978,0.308219
2.674102,0.297883
2.678238,0.304613
2.682387,0.299007
2.686549,0.30005
2.690724,0.298286
2.694911,0.303703
2.699112,0.297621
2.703325,0.298283
2.707552,0.296681
2.711791,0.301363
2.716044,0.293665
2.72031,0.299948
2.724589,0.295511
2.728882,0.287406
2.733188,0.285536
2.737508,0.28433
2.741841,0.287948
2.746188,0.281827
2.750549,0.280474
2.754923,0.282311
2.759311,0.27872
2.763713,0.280333
2.768129,0.279266
2.772559,0.278959
2.777003,0.277083
2.781461,0.277159
2.785934,0.276783
2.79042,0.277003
2.794922,0.275981
2.799437,0.275789
2.803967,0.278689
2.808512,0.275907
2.813071,0.275271
2.817645,0.274916
2.822233,0.276518
2.826837,0.275874
2.831455,0.27557
2.836089,0.276511
2.840737,0.276263
2.845401,0.2760519
2.85008,0.276642
2.854774,0.276965
2.859484,0.276425
2.864209,0.276506
2.868949,0.276492
2.873705,0.276591
2.878477,0.27565
2.883265,0.275726
2.888068,0.27583
2.892887,0.277189
2.897723,0.27651
2.902574,0.276645
2.907441,0.275792
2.912325,0.276244
2.917225,0.276834
2.922142,0.276066
2.927075,0.275415
2.932024,0.275903
2.93699,0.276185
2.941973,0.276213
2.946973,0.277362
2.951989,0.275013
2.957023,0.276291
2.962073,0.274927
2.967141,0.276133
2.972226,0.275985
2.977328,0.278051
2.982448,0.276104
2.987586,0.276596
2.99274,0.278248
2.997913,0.27728
3.003103,0.278734
3.008312,0.278097
3.013538,0.278672
3.018782,0.279393
3.024044,0.279064
3.029325,0.280101
3.034624,0.282734
3.039942,0.28135
3.045278,0.282798
3.050632,0.2818761
3.056006,0.281937
3.061398,0.282377
3.066809,0.284397
3.072239,0.28313
3.077689,0.283343
3.083157,0.28417
3.088645,0.285607
3.094153,0.28516
3.099679,0.285723
3.105226,0.285009
3.110792,0.285297
3.116378,0.285547
3.121985,0.284873
3.127611,0.285516
3.133257,0.285503
3.138924,0.285483
3.144611,0.285951
3.150319,0.285679
3.156047,0.286224
3.161796,0.286935
3.167566,0.287001
3.173356,0.28742
3.179168,0.288358
3.185001,0.288059
3.190856,0.288327
3.196731,0.289762
3.202629,0.2895
3.208548,0.289361
3.214488,0.292425
3.220451,0.29163
3.226436,0.292279
3.232443,0.290727
3.238472,0.291238
3.244523,0.292494
3.250598,0.292975
3.256694,0.2943537
3.262814,0.292246
3.268956,0.293625
3.275122,0.292978
3.28131,0.29346
3.287522,0.294261
3.293757,0.294458
3.300016,0.295007
3.306299,0.295571
3.312605,0.294561
3.318936,0.295308
3.32529,0.296629
3.331669,0.297676
3.338072,0.295657
3.344499,0.295999
3.350952,0.29769
3.357429,0.295652
3.363931,0.29651
3.370458,0.29639
3.37701,0.295793
3.383588,0.296739
3.390191,0.298167
3.39682,0.299421
3.403475,0.299497
3.410156,0.299855
3.416862,0.299645
3.423596,0.302537
3.430355,0.302732
3.437141,0.303998
3.443954,0.307353
3.450794,0.304749
3.457661,0.305471
3.464556,0.306902
3.471477,0.306022
3.478426,0.306834
3.485403,0.30737
3.492408,0.310657
3.499441,0.309221
3.506502,0.310601
3.513592,0.311711
3.52071,0.311919
3.527857,0.31242
3.535032,0.315682
3.542237,0.314411
3.549471,0.314969
3.556735,0.316278
3.564028,0.316813
3.571351,0.318581
3.578704,0.318782
3.586088,0.321038
3.593501,0.321004
3.600946,0.322428
3.608421,0.322487
3.615926,0.324394
3.623463,0.324432
3.631032,0.325739
3.638632,0.326197
3.646263,0.327456
3.653927,0.329119
3.661623,0.329605
3.669351,0.331596
3.677111,0.332869
3.684905,0.334447
3.692731,0.335479
3.70059,0.337256
3.708483,0.338246
3.716409,0.339796
3.72437,0.341226
3.732364,0.342853
3.740392,0.344319
3.748455,0.346967
3.756553,0.347914
3.764685,0.350047
3.772853,0.351766
3.781056,0.353859
3.789294,0.355454
3.797568,0.357063
3.805879,0.359464
3.814225,0.360956
3.822609,0.362779
3.831029,0.364463
3.839486,0.366162
3.84798,0.367981
3.856512,0.369343
3.865081,0.370583
3.873689,0.371925
3.882334,0.37363
3.891019,0.375698
3.899742,0.377229
3.908504,0.37964
3.917305,0.381281
3.926146,0.383545
3.935027,0.38565
3.943948,0.388037
3.952909,0.390868
3.961911,0.393332
3.970954,0.396453
3.980038,0.398992
3.989163,0.401193
3.99833,0.40336
4.00754,0.405631
4.016791,0.407642
4.026086,0.410756
4.035423,0.413516
4.044804,0.415996
4.054228,0.419064
4.063695,0.422098
4.073207,0.425788
4.082764,0.428637
4.092365,0.431938
4.102012,0.43574
4.111703,0.439756
4.121441,0.44388
4.131224,0.446735
4.141054,0.451369
4.150931,0.455884
4.160854,0.459854
4.170826,0.464096
4.180844,0.468332
4.190911,0.473023
4.201026,0.477737
4.21119,0.483702
4.221404,0.490411
4.231666,0.496937
4.241979,0.50187
4.252341,0.504514
4.262754,0.507884
4.273219,0.514648
4.283734,0.520636
4.294301,0.525357
4.30492,0.530528
4.315592,0.534817
4.326317,0.540185
4.337095,0.543908
4.347926,0.549771
4.358811,0.557055
4.369751,0.562875
4.380746,0.568471
4.391796,0.574036
4.402902,0.581148
4.414064,0.587318
4.425282,0.59363
4.436558,0.599745
4.447891,0.605464
4.459281,0.61032
4.47073,0.616362
4.482238,0.6204139
4.493805,0.624772
4.505431,0.631343
4.517118,0.634796
4.528865,0.638257
4.540674,0.641652
4.552543,0.647736
4.564475,0.651131
4.57647,0.656176
4.588527,0.661518
4.600648,0.664628
4.612833,0.668899
4.625082,0.672296
4.637397,0.677852
4.649777,0.682049
4.662223,0.686885
4.674735,0.692737
4.687315,0.697869
4.699962,0.70329
4.712678,0.709574
4.725463,0.715631
4.738316,0.721733
4.75124,0.727803
4.764234,0.733633
4.777299,0.739346
4.790436,0.744459
4.803645,0.749472
4.816927,0.754536
4.830283,0.75862
4.843712,0.761737
4.857216,0.767077
4.870795,0.769192
4.884451,0.7701
4.898182,0.774728
4.911991,0.777049
4.925878,0.779472
4.939844,0.781991
4.953888,0.784733
4.968013,0.786867
4.982218,0.789228
4.996504,0.792014
5.010872,0.79469
5.025323,0.798067
5.039857,0.800081
5.054475,0.802187
5.069179,0.804799
5.083967,0.808894
5.098842,0.810399
5.113804,0.81357
5.128854,0.816697
5.143992,0.819702
5.15922,0.821503
5.174538,0.823454
5.189947,0.826992
5.205448,0.830293
5.221041,0.832891
5.236728,0.836234
5.25251,0.838413
5.268386,0.841282
5.284358,0.844364
5.300428,0.84769
5.316595,0.850586
5.33286,0.85353
5.349226,0.860244
5.365692,0.86038
5.382259,0.865151
5.398928,0.872201
5.415701,0.88514
5.432579,0.899988
5.449561,0.932208
5.46665,0.0100717
5.483846,0.0117905
5.50115,0.0170437
5.518564,0.620872
5.536087,0.387995
5.553723,0.495395
5.57147,0.564624
5.589332,0.607633
5.607307,0.636256
5.625399,0.659333
5.643607,0.668973
5.661934,0.688798
5.680379,0.699268
5.698945,0.709699
5.717633,0.717664
5.736443,0.726291
5.755377,0.733497
5.774436,0.739732
5.793621,0.747952
5.812934,0.751776
5.832376,0.758413
5.851948,0.762962
5.871652,0.767873
5.891488,0.771499
5.911459,0.781736
5.931565,0.778581
5.951809,0.792268
5.97219,0.792417
5.992711,0.795694
6.013374,0.797472
6.034179,0.802228
6.055129,0.79962
6.076224,0.801258
6.097466,0.806711
6.118857,0.807132
6.140398,0.811276
6.162091,0.814076
6.183938,0.814781
6.20594,0.825928
6.228099,0.831551
6.250416,0.836281
6.272893,0.839972
6.295533,0.844567
6.318336,0.847539
6.341304,0.843364
6.36444,0.851617
6.387745,0.857315
6.411221,0.846628
6.434869,0.861248
6.458693,0.864961
6.482693,0.860362
6.506872,0.873251
6.531231,0.878565
6.555774,0.878361
6.580501,0.882481
6.605415,0.887367
6.630518,0.881207
6.655812,0.893975
6.6813,0.894695
6.706983,0.896545
6.732864,0.902424
6.758945,0.904476
6.785229,0.901721
6.811718,0.908474
6.838413,0.911766
6.865319,0.909891
6.892437,0.914651
6.919769,0.917351
6.947319,0.917555
6.975089,0.923448
7.003081,0.92571
7.031298,0.926166
7.059743,0.931831
7.088419,0.933873
7.117329,0.935284
7.146475,0.9372
7.17586,0.941221
7.205487,0.942827
7.23536,0.946295
7.265481,0.948011
7.295854,0.951158
7.326481,0.953023
7.357366,0.956192
7.388512,0.957545
7.419922,0.960566
7.451601,0.962073
7.48355,0.965091
7.515774,0.967156
7.548277,0.969163
7.581061,0.971698
7.614131,0.974256
7.647491,0.976428
7.681143,0.978516
7.715093,0.980508
7.749343,0.982673
7.783899,0.98465
7.818764,0.986681
7.853942,0.988501
7.889437,0.990253
7.925254,0.992024
7.961398,0.995921
7.997872,0.998477
8.034682,0.010013
8.071832,0.0100405
8.109326,0.0100609
8.147169,0.0100866
8.185368,0.0101066
8.223925,0.0101276
8.262847,0.0101473
8.302139,0.0101623
8.341805,0.0101761
8.381852,0.0101858
8.422285,0.0102127
8.463109,0.0102206
8.504331,0.0102412
8.545955,0.010259
8.587989,0.0102735
8.630437,0.0102877
8.673307,0.0103035
8.716604,0.0103138
8.760335,0.0103271
8.804507,0.0103376
8.849125,0.0103396
8.894198,0.0103452
8.939732,0.0103475
8.985733,0.0103625
9.03221,0.0103675
9.07917,0.0103673
9.12662,0.0103736
9.174568,0.0103611
9.223022,0.0103674
9.27199,0.0103774
9.32148,0.0103831
9.3715,0.0103917
9.42206,0.0104081
9.473167,0.0104037
9.524832,0.0104116
9.577062,0.0104191
9.629868,0.0104193
9.683259,0.0104275
9.737244,0.0104361
9.791834,0.0104441
9.847039,0.0104561
9.902869,0.0104725
9.959336,0.0104842
10.0164,0.010492
10.0742,0.0105053
10.1327,0.0105085
10.1918,0.0105152
10.2516,0.0105168
10.3121,0.0105173
10.37336,0.0105161
10.4353,0.0105189
10.498,0.010516
10.5615,0.0105138
10.6258,0.0105107
10.69079,0.0105045
10.7566,0.0104968
10.8233,0.0105009
10.8907,0.0104879
10.9591,0.0104761
11.02824,0.0104666
11.0983,0.0104524
11.1693,0.0104393
11.2411,0.0104231
11.3139,0.0104109
11.3877,0.0104021
11.46238,0.0103878
11.5381,0.0103937
11.6148,0.0103779
11.6925,0.0103673
11.77129,0.0103637
11.8511,0.0103534
11.9321,0.0103317
12.0141,0.0103369
12.0973,0.0103053
12.1816,0.0102977
12.26716,0.0102826
12.3539,0.0102733
12.4419,0.0102728
12.5311,0.0102643
12.6216,0.0102617
12.7134,0.0102788
12.8066,0.0102861
12.9012,0.0102814
12.9971,0.0102727
13.09451,0.010261
13.1934,0.0102386
13.29374,0.0102205
13.3956,0.0102095
13.4991,0.0101936
13.6042,0.0101402
13.7109,0.0101362
13.8194,0.0101192
13.9295,0.0100996
14.0414,0.010053
14.1552,0.0100283
14.2707,0.997853
14.3882,0.99209
14.5077,0.984044
14.6291,0.974024
14.7526,0.960889
14.8782,0.941604
15.00592,0.923852
15.1359,0.877987
15.2681,0.818036
15.4026,0.758364
15.5396,0.664927
15.679,0.538269
15.8209,0.44411
15.9654,0.372725