File: csv_library/FTIR_MET_44_1.csv
Database of Origin,University of Winnipeg Spectrophotometer Facility
Sample Description,16.7. Meteorites - Ordinary chondrites 16.7.4. NASA samples D&P 102F FTIR spectra - LAP04840 ordinary chondrite
Other Information,LAP 04 840 Bulk Sample 50W QTH 8mm spot
Date Added,2018-07-23 23:46:34.8559

Data ID,FTIR_MET_44_1
Sample ID,LAP04840
Mineral Name,Ordinary Chondrite
Grain Size,bulk powder
Viewing Geometry,30/0
Resolution,6 cm-1
Composition,Amphibole bearing

Wavelength
2000.56,0.118886
2002.307,0.118503
2004.058,0.118514
2005.812,0.118329
2007.569,0.118391
2009.329,0.118344
2011.092,0.117863
2012.858,0.1178362
2014.627,0.117527
2016.399,0.11733
2018.174,0.117834
2019.952,0.117836
2021.733,0.117435
2023.518,0.1170498
2025.305,0.117196
2027.096,0.116714
2028.89,0.1167
2030.686,0.11626
2032.486,0.116264
2034.289,0.116284
2036.096,0.115886
2037.905,0.115789
2039.718,0.116081
2041.533,0.115736
2043.352,0.115376
2045.174,0.114983
2047.0,0.114811
2048.828,0.114809
2050.66,0.114274
2052.495,0.114185
2054.333,0.114582
2056.175,0.114419
2058.019,0.114225
2059.867,0.113984
2061.718,0.113879
2063.573,0.113928
2065.431,0.1136502
2067.292,0.113212
2069.156,0.113093
2071.024,0.1131106
2072.895,0.113041
2074.769,0.112997
2076.647,0.112591
2078.528,0.112716
2080.412,0.112877
2082.3,0.112468
2084.191,0.112267
2086.085,0.112139
2087.983,0.11219
2089.885,0.111873
2091.789,0.112151
2093.697,0.1120094
2095.609,0.111874
2097.524,0.111791
2099.443,0.111716
2101.364,0.111631
2103.29,0.111471
2105.219,0.111566
2107.151,0.111361
2109.087,0.110957
2111.026,0.110362
2112.969,0.109939
2114.915,0.109785
2116.865,0.110113
2118.819,0.110121
2120.776,0.1102402
2122.736,0.109552
2124.7,0.109398
2126.668,0.109874
2128.64,0.109771
2130.614,0.10941
2132.593,0.109202
2134.575,0.108708
2136.561,0.108546
2138.55,0.108417
2140.544,0.108684
2142.54,0.108476
2144.541,0.108277
2146.545,0.108214
2148.553,0.108272
2150.564,0.10826
2152.579,0.107892
2154.598,0.108005
2156.621,0.1081711
2158.647,0.108117
2160.678,0.107988
2162.712,0.108
2164.749,0.107956
2166.791,0.108266
2168.836,0.108295
2170.885,0.10808
2172.938,0.107748
2174.995,0.107969
2177.056,0.107787
2179.12,0.107736
2181.189,0.107425
2183.261,0.107458
2185.337,0.107537
2187.417,0.107303
2189.501,0.107402
2191.589,0.107647
2193.68,0.107877
2195.776,0.107605
2197.876,0.107399
2199.979,0.107459
2202.087,0.107485
2204.199,0.107327
2206.314,0.107233
2208.434,0.10727
2210.557,0.107418
2212.685,0.107282
2214.817,0.107356
2216.952,0.107161
2219.092,0.107238
2221.236,0.107287
2223.384,0.10684
2225.536,0.106951
2227.692,0.1069385
2229.853,0.106584
2232.017,0.106306
2234.186,0.106416
2236.359,0.106435
2238.536,0.1060913
2240.717,0.106053
2242.902,0.105955
2245.092,0.105956
2247.285,0.106091
2249.483,0.105706
2251.686,0.105841
2253.892,0.105946
2256.103,0.105764
2258.318,0.105458
2260.537,0.105325
2262.761,0.105112
2264.989,0.105086
2267.221,0.1052
2269.458,0.105058
2271.699,0.104945
2273.944,0.104825
2276.194,0.104372
2278.448,0.104553
2280.707,0.1046053
2282.97,0.104614
2285.237,0.104596
2287.509,0.104408
2289.786,0.10452
2292.067,0.104382
2294.352,0.104407
2296.642,0.104368
2298.936,0.104258
2301.235,0.103953
2303.539,0.103712
2305.847,0.103513
2308.159,0.103393
2310.476,0.103594
2312.798,0.103535
2315.124,0.1033574
2317.455,0.103385
2319.791,0.103274
2322.131,0.1034068
2324.476,0.103907
2326.826,0.104
2329.18,0.1041584
2331.54,0.1043002
2333.903,0.104278
2336.272,0.104397
2338.645,0.1041881
2341.023,0.104149
2343.406,0.104141
2345.794,0.104241
2348.186,0.1042092
2350.583,0.104157
2352.986,0.104072
2355.393,0.104301
2357.804,0.104319
2360.221,0.104155
2362.643,0.1041004
2365.069,0.104058
2367.501,0.103834
2369.937,0.103846
2372.379,0.103955
2374.825,0.1036491
2377.276,0.103514
2379.733,0.103519
2382.194,0.103448
2384.661,0.1035983
2387.132,0.103393
2389.609,0.103423
2392.09,0.103429
2394.577,0.103291
2397.069,0.103549
2399.566,0.103724
2402.068,0.103799
2404.575,0.103597
2407.088,0.10365
2409.606,0.10358
2412.128,0.103575
2414.657,0.103523
2417.19,0.10353
2419.729,0.10352
2422.272,0.103624
2424.822,0.103527
2427.376,0.103435
2429.936,0.103506
2432.501,0.103552
2435.072,0.103974
2437.648,0.103925
2440.229,0.104077
2442.816,0.104177
2445.408,0.104096
2448.006,0.104
2450.609,0.103964
2453.217,0.103959
2455.831,0.104011
2458.451,0.104066
2461.076,0.10414
2463.707,0.104158
2466.343,0.104091
2468.985,0.104137
2471.632,0.104352
2474.285,0.10429
2476.944,0.104315
2479.608,0.104307
2482.278,0.104207
2484.954,0.104473
2487.636,0.1048284
2490.323,0.1047256
2493.016,0.10466
2495.715,0.104798
2498.419,0.104786
2501.129,0.1049211
2503.845,0.1051951
2506.567,0.104968
2509.295,0.105039
2512.029,0.105298
2514.769,0.105486
2517.514,0.105579
2520.266,0.105497
2523.023,0.105819
2525.787,0.10589
2528.556,0.106053
2531.331,0.106959
2534.113,0.10727
2536.9,0.106906
2539.694,0.106472
2542.494,0.108547
2545.3,0.108003
2548.112,0.108451
2550.93,0.109361
2553.754,0.108157
2556.585,0.106676
2559.421,0.111078
2562.264,0.116774
2565.113,0.111134
2567.969,0.109969
2570.831,0.111563
2573.699,0.113214
2576.573,0.112229
2579.454,0.110456
2582.342,0.115133
2585.235,0.115297
2588.135,0.1134533
2591.042,0.111502
2593.955,0.125931
2596.874,0.116343
2599.8,0.109814
2602.733,0.115744
2605.672,0.119468
2608.618,0.114158
2611.57,0.110869
2614.529,0.113736
2617.495,0.119043
2620.467,0.115721
2623.446,0.110298
2626.431,0.114458
2629.424,0.118351
2632.423,0.115711
2635.429,0.110914
2638.442,0.109354
2641.461,0.110342
2644.488,0.112058
2647.521,0.111193
2650.561,0.1112683
2653.609,0.114361
2656.663,0.11288
2659.724,0.115091
2662.792,0.117934
2665.867,0.12948
2668.949,0.1306152
2672.038,0.124164
2675.135,0.122265
2678.238,0.126396
2681.349,0.115523
2684.467,0.11643
2687.591,0.115409
2690.724,0.114213
2693.863,0.123851
2697.01,0.120266
2700.164,0.119538
2703.325,0.121513
2706.494,0.12384
2709.67,0.142854
2712.853,0.139092
2716.044,0.129397
2719.242,0.149035
2722.448,0.154712
2725.661,0.136834
2728.882,0.1160655
2732.111,0.110636
2735.347,0.109403
2738.59,0.111502
2741.841,0.1089
2745.1,0.09305837
2748.367,0.08942244
2751.641,0.08888094
2754.923,0.09344793
2758.213,0.08743918
2761.51,0.08478356
2764.816,0.08482573
2768.129,0.0830325
2771.45,0.08212513
2774.779,0.07895964
2778.116,0.07805256
2781.461,0.07749019
2784.814,0.07673218
2788.175,0.07727035
2791.544,0.07388208
2794.922,0.07230905
2798.307,0.07129496
2801.7,0.07198078
2805.102,0.07226638
2808.512,0.06959716
2811.93,0.06845348
2815.356,0.06815678
2818.791,0.06754181
2822.233,0.06677032
2825.685,0.06542818
2829.144,0.06491542
2832.612,0.06434422
2836.089,0.06409051
2839.574,0.06303903
2843.067,0.06229418
2846.569,0.06179486
2850.08,0.06103003
2853.599,0.06080981
2857.127,0.06017504
2860.664,0.05967856
2864.209,0.05906812
2867.763,0.05882374
2871.325,0.05839226
2874.897,0.05790224
2878.477,0.05743545
2882.066,0.05701297
2885.664,0.05643584
2889.271,0.05676829
2892.887,0.05586077
2896.512,0.05502398
2900.146,0.05463523
2903.789,0.05468099
2907.441,0.05437386
2911.103,0.05386041
2914.773,0.0538808
2918.453,0.05410615
2922.142,0.05317654
2925.84,0.05243856
2929.547,0.05183894
2933.264,0.05175888
2936.99,0.05180973
2940.726,0.05167372
2944.471,0.05148261
2948.225,0.05256491
2951.989,0.05134459
2955.763,0.05150262
2959.546,0.05037226
2963.339,0.05014348
2967.141,0.05025425
2970.953,0.04999608
2974.775,0.0510516
2978.607,0.05066332
2982.448,0.04955696
2986.3,0.04907323
2990.161,0.04958377
2994.032,0.04997242
2997.913,0.04950216
3001.804,0.04987432
3005.705,0.04948924
3009.616,0.04910465
3013.538,0.0494506
3017.469,0.04938104
3021.411,0.04920916
3025.363,0.0492141
3029.325,0.05030883
3033.298,0.05151122
3037.281,0.05003673
3041.274,0.04997422
3045.278,0.05064624
3049.292,0.05009207
3053.317,0.04958976
3057.352,0.0496677
3061.398,0.05038162
3065.455,0.05134777
3069.522,0.05051281
3073.6,0.04994661
3077.689,0.05033651
3081.788,0.0506339
3085.899,0.05055906
3090.02,0.05060503
3094.153,0.05040314
3098.296,0.05095977
3102.45,0.05158196
3106.616,0.05058966
3110.792,0.05031393
3114.98,0.05038288
3119.179,0.05060602
3123.389,0.05050729
3127.611,0.05049448
3131.844,0.05057458
3136.088,0.05065216
3140.344,0.05088917
3144.611,0.05110108
3148.89,0.05099348
3153.18,0.05110428
3157.482,0.05123758
3161.796,0.05155189
3166.121,0.05185995
3170.458,0.05187718
3174.807,0.05184135
3179.168,0.05299173
3183.541,0.05348956
3187.926,0.05270243
3192.323,0.05350327
3196.731,0.05394861
3201.152,0.05362146
3205.585,0.0537806
3210.031,0.05409873
3214.488,0.05646896
3218.958,0.05676719
3223.441,0.05544697
3227.936,0.05552483
3232.443,0.05523931
3236.963,0.05564113
3241.495,0.05581912
3246.04,0.05670303
3250.598,0.05747563
3255.168,0.05886365
3259.751,0.05869406
3264.347,0.05731114
3268.956,0.05802627
3273.578,0.05806119
3278.213,0.05772852
3282.861,0.0583886
3287.522,0.05899784
3292.196,0.05935506
3296.884,0.0606374
3301.585,0.05993228
3306.299,0.06035966
3311.026,0.06017298
3315.767,0.06044823
3320.522,0.06075047
3325.29,0.0624089
3330.072,0.06360448
3334.867,0.0617717
3339.676,0.06141499
3344.499,0.06216363
3349.336,0.06326631
3354.187,0.06327621
3359.052,0.06271991
3363.931,0.06370148
3368.824,0.06423461
3373.731,0.06394746
3378.652,0.06373678
3383.588,0.06431787
3388.538,0.06478585
3393.502,0.06512484
3398.481,0.06602981
3403.475,0.06703593
3408.483,0.06762655
3413.506,0.06660598
3418.543,0.06710741
3423.596,0.06823286
3428.663,0.06823412
3433.745,0.06861641
3438.842,0.07031653
3443.954,0.07174163
3449.082,0.07028762
3454.224,0.07006035
3459.382,0.07032409
3464.556,0.07117687
3469.744,0.07111357
3474.948,0.07116921
3480.168,0.07165329
3485.403,0.07215465
3490.654,0.07380039
3495.921,0.07359657
3501.204,0.07326473
3506.502,0.07385637
3511.817,0.07417779
3517.147,0.07431414
3522.494,0.07501298
3527.857,0.07522272
3533.236,0.07687893
3538.631,0.07714496
3544.043,0.07670044
3549.471,0.07688695
3554.916,0.07731123
3560.378,0.0776882
3565.856,0.07816284
3571.351,0.07882368
3576.863,0.07893187
3582.392,0.07944467
3587.938,0.08010825
3593.501,0.08071659
3599.082,0.08129154
3604.679,0.0807684
3610.294,0.08113058
3615.926,0.08219402
3621.576,0.08214193
3627.244,0.08235035
3632.929,0.08262395
3638.632,0.08296975
3644.353,0.08348561
3650.091,0.08431851
3655.848,0.08451013
3661.623,0.08480605
3667.416,0.08537468
3673.227,0.08592595
3679.057,0.08689843
3684.905,0.08762646
3690.771,0.08764293
3696.656,0.08818393
3702.56,0.08905676
3708.483,0.08960065
3714.425,0.09029967
3720.385,0.09110257
3726.365,0.09149236
3732.364,0.09224031
3738.382,0.0931973
3744.419,0.09440446
3750.476,0.09513077
3756.553,0.09552507
3762.649,0.09604842
3768.764,0.0968524
3774.9,0.09766306
3781.056,0.09855423
3787.231,0.09915051
3793.427,0.10003
3799.643,0.101091
3805.879,0.102182
3812.135,0.103075
3818.412,0.10384
3824.71,0.1045306
3831.029,0.1054557
3837.368,0.106446
3843.728,0.107275
3850.109,0.108341
3856.512,0.109325
3862.935,0.110229
3869.38,0.111316
3875.846,0.112238
3882.334,0.113136
3888.844,0.114092
3895.375,0.115162
3901.929,0.116114
3908.504,0.117026
3915.101,0.117895
3921.721,0.119112
3928.363,0.1203
3935.027,0.121315
3941.714,0.122546
3948.423,0.12394
3955.156,0.1253369
3961.911,0.126915
3968.689,0.128512
3975.491,0.13006
3982.315,0.131666
3989.163,0.1329401
3996.035,0.1339185
4002.93,0.135261
4009.849,0.1366082
4016.791,0.137778
4023.758,0.13913
4030.749,0.1404554
4037.764,0.142173
4044.804,0.143903
4051.867,0.145677
4058.956,0.147537
4066.069,0.1494697
4073.207,0.15149
4080.371,0.153629
4087.559,0.155891
4094.773,0.158298
4102.012,0.160685
4109.276,0.162983
4116.566,0.1652838
4123.882,0.16799
4131.224,0.170811
4138.592,0.173511
4145.987,0.176123
4153.407,0.178818
4160.854,0.18185
4168.328,0.185091
4175.829,0.188301
4183.356,0.191613
4190.911,0.195753
4198.493,0.203456
4206.102,0.218949
4213.739,0.24197
4221.404,0.267675
4229.096,0.291922
4236.816,0.306644
4244.565,0.303409
4252.341,0.277083
4260.146,0.265381
4267.98,0.290695
4275.843,0.301527
4283.734,0.302882
4291.655,0.305761
4299.604,0.303005
4307.583,0.300666
4315.592,0.294626
4323.631,0.28976
4331.699,0.286298
4339.797,0.283975
4347.926,0.284177
4356.085,0.285858
4364.275,0.288298
4372.495,0.291
4380.746,0.294368
4389.029,0.299407
4397.342,0.304538
4405.687,0.309425
4414.064,0.314256
4422.472,0.319056
4430.913,0.32372
4439.386,0.328109
4447.891,0.332546
4456.428,0.33672
4464.998,0.339996
4473.602,0.34329
4482.238,0.3463781
4490.908,0.348863
4499.611,0.352011
4508.347,0.354779
4517.118,0.357482
4525.923,0.360865
4534.762,0.364255
4543.635,0.367514
4552.543,0.370889
4561.487,0.374499
4570.465,0.377868
4579.478,0.381321
4588.527,0.384952
4597.612,0.388012
4606.732,0.391765
4615.889,0.395686
4625.082,0.399554
4634.312,0.4031793
4643.578,0.407161
4652.882,0.41141
4662.223,0.414977
4671.601,0.419127
4681.017,0.423571
4690.471,0.427822
4699.962,0.431969
4709.493,0.436072
4719.062,0.440171
4728.669,0.445094
4738.316,0.448773
4748.002,0.452745
4757.728,0.456303
4767.494,0.459998
4777.299,0.464005
4787.145,0.46789
4797.032,0.470944
4806.959,0.4749903
4816.927,0.478482
4826.937,0.4814423
4836.988,0.485894
4847.081,0.489571
4857.216,0.491544
4867.393,0.495065
4877.613,0.498683
4887.876,0.5018381
4898.182,0.505527
4908.532,0.507435
4918.925,0.510415
4929.362,0.514246
4939.844,0.517071
4950.37,0.521501
4960.941,0.524749
4971.556,0.5260865
4982.218,0.5292718
4992.925,0.532352
5003.678,0.535568
5014.477,0.541613
5025.323,0.546984
5036.216,0.544175
5047.156,0.546122
5058.143,0.54942
5069.179,0.552432
5080.262,0.559202
5091.394,0.5607
5102.574,0.5620903
5113.804,0.565562
5125.083,0.56802
5136.412,0.573868
5147.791,0.583059
5159.22,0.578504
5170.7,0.580358
5182.231,0.5829542
5193.814,0.590698
5205.448,0.600523
5217.134,0.602202
5228.873,0.599286
5240.665,0.604244
5252.51,0.603576
5264.408,0.607542
5276.36,0.614191
5288.367,0.621836
5300.428,0.621032
5312.544,0.620561
5324.715,0.6239274
5336.942,0.630478
5349.226,0.652856
5361.566,0.642889
5373.962,0.640454
5386.417,0.644591
5398.928,0.6514293
5411.498,0.674184
5424.127,0.7001116
5436.814,0.696498
5449.561,0.72766
5462.368,0.8000715
5475.234,0.888663
5488.162,0.0100691
5501.15,0.0128524
5514.2,0.0204638
5527.312,0.0158884
5540.486,0.603295
5553.723,0.211428
5567.023,0.12677
5580.387,0.161898
5593.815,0.210282
5607.307,0.2513338
5620.865,0.284312
5634.489,0.309416
5648.178,0.332569
5661.934,0.353712
5675.757,0.370223
5689.647,0.383928
5703.606,0.396151
5717.633,0.410293
5731.729,0.421754
5745.894,0.430936
5760.13,0.438199
5774.436,0.448357
5788.813,0.456332
5803.262,0.46472
5817.782,0.474006
5832.376,0.480935
5847.043,0.488284
5861.783,0.497116
5876.598,0.502537
5891.488,0.507364
5906.454,0.512291
5921.495,0.520036
5936.613,0.525779
5951.809,0.529913
5967.082,0.534427
5982.433,0.54053
5997.864,0.541307
6013.374,0.5445705
6028.964,0.547311
6044.636,0.5494892
6060.389,0.55498
6076.224,0.55684
6092.141,0.557906
6108.143,0.5643944
6124.228,0.564391
6140.398,0.570456
6156.654,0.575573
6172.996,0.579298
6189.424,0.584322
6205.94,0.591079
6222.544,0.597264
6239.237,0.602005
6256.02,0.606799
6272.893,0.612105
6289.858,0.615836
6306.914,0.619698
6324.062,0.625176
6341.304,0.630067
6358.64,0.634665
6376.071,0.639024
6393.598,0.643645
6411.221,0.651541
6428.941,0.651898
6446.759,0.655113
6464.676,0.66183
6482.693,0.668728
6500.81,0.668187
6519.029,0.674111
6537.35,0.678081
6555.774,0.685508
6574.302,0.69052
6592.934,0.693589
6611.673,0.698227
6630.518,0.703939
6649.47,0.6987672
6668.532,0.704399
6687.702,0.705787
6706.983,0.713629
6726.375,0.712014
6745.879,0.712903
6765.497,0.719437
6785.229,0.723419
6805.076,0.721029
6825.039,0.724173
6845.12,0.730445
6865.319,0.732401
6885.637,0.730947
6906.076,0.73369
6926.636,0.734483
6947.319,0.741698
6968.125,0.744692
6989.057,0.74655
7010.114,0.749317
7031.298,0.755745
7052.611,0.757966
7074.052,0.75757
7095.625,0.7608901
7117.329,0.7646869
7139.166,0.7706033
7161.137,0.774834
7183.244,0.776046
7205.487,0.78043
7227.869,0.7820651
7250.39,0.787509
7273.051,0.791805
7295.854,0.792818
7318.8,0.797619
7341.891,0.800731
7365.128,0.801204
7388.512,0.80407
7412.045,0.807023
7435.728,0.810911
7459.562,0.816594
7483.55,0.8169339
7507.692,0.8190591
7531.99,0.821476
7556.446,0.8245281
7581.061,0.827689
7605.837,0.829646
7630.774,0.831146
7655.876,0.833239
7681.143,0.835512
7706.577,0.837961
7732.18,0.840245
7757.953,0.842448
7783.899,0.844176
7810.018,0.846213
7836.313,0.848632
7862.786,0.8508063
7889.437,0.852413
7916.27,0.854532
7943.285,0.85741
7970.485,0.859944
7997.872,0.862646
8025.448,0.8653268
8053.214,0.8675215
8081.173,0.869557
8109.326,0.87162
8137.676,0.8735357
8166.224,0.874893
8194.973,0.876278
8223.925,0.87783
8253.082,0.87928
8282.446,0.880641
8312.02,0.8820932
8341.805,0.883544
8371.804,0.885205
8402.02,0.886884
8432.454,0.888375
8463.109,0.889189
8493.988,0.890218
8525.092,0.891465
8556.425,0.8926999
8587.989,0.893993
8619.786,0.895424
8651.819,0.8968147
8684.091,0.8978988
8716.604,0.899036
8749.361,0.900288
8782.365,0.901748
8815.619,0.90302
8849.125,0.904145
8882.887,0.905515
8916.907,0.906837
8951.188,0.907764
8985.733,0.9084276
9020.546,0.908788
9055.629,0.909176
9090.986,0.9091739
9126.62,0.909058
9162.534,0.908608
9198.731,0.908331
9235.215,0.907855
9271.99,0.907746
9309.058,0.907926
9346.423,0.908507
9384.089,0.909455
9422.06,0.9103383
9460.339,0.911499
9498.929,0.912792
9537.836,0.91471
9577.062,0.915949
9616.612,0.917184
9656.49,0.918527
9696.699,0.920008
9737.244,0.9214337
9778.129,0.922525
9819.359,0.923996
9860.938,0.925365
9902.869,0.926485
9945.159,0.92771
9987.811,0.928815
10030.83,0.929885
10074.221,0.930572
10117.988,0.931337
10162.137,0.932221
10206.672,0.933076
10251.6,0.933788
10296.924,0.934529
10342.65,0.935163
10388.784,0.93601
10435.331,0.936599
10482.296,0.93685
10529.686,0.936729
10577.505,0.936305
10625.761,0.935761
10674.458,0.935118
10723.604,0.934688
10773.203,0.934191
10823.264,0.933544
10873.791,0.933019
10924.791,0.932523
10976.272,0.93192
11028.24,0.93095
11080.702,0.930379
11133.665,0.929763
11187.137,0.929112
11241.124,0.9285671
11295.634,0.928431
11350.675,0.928384
11406.254,0.928062
11462.38,0.92819
11519.06,0.927918
11576.304,0.927756
11634.118,0.927695
11692.513,0.927571
11751.496,0.927598
11811.077,0.927245
11871.265,0.927126
11932.068,0.927142
11993.497,0.926731
12055.562,0.926214
12118.271,0.925422
12181.636,0.924944
12245.667,0.924097
12310.373,0.923513
12375.767,0.922792
12441.859,0.922453
12508.659,0.92261
12576.18,0.922876
12644.434,0.9230065
12713.432,0.922985
12783.187,0.922673
12853.71,0.922329
12925.016,0.92206
12997.116,0.921289
13070.025,0.9202
13143.756,0.9191
13218.322,0.91798
13293.74,0.916681
13370.021,0.915205
13447.183,0.913796
13525.24,0.91169
13604.208,0.9099
13684.103,0.9077316
13764.941,0.904951
13846.739,0.901582
13929.515,0.897837
14013.285,0.893319
14098.068,0.887655
14183.883,0.88138
14270.749,0.873641
14358.684,0.864041
14447.709,0.852787
14537.844,0.838983
14629.109,0.822307
14721.528,0.80201
14815.121,0.779736
14909.91,0.738434
15005.92,0.706448
15103.173,0.6729177
15201.695,0.614237
15301.509,0.545256
15402.642,0.473391
15505.12,0.402605
15608.97,0.33238
15714.22,0.273139
15820.897,0.225742
15929.033,0.188567
15965.407,0.177762