File: csv_library/FTIR_CLAY_09.csv
Database of Origin,University of Winnipeg Spectrophotometer Facility
Sample Description,See Master Clays in HOSERLab database
Date Added,2016-12-11 20:56:55.2618

Data ID,FTIR_CLAY_09
Sample ID,KAO101
Mineral Name,Kaolinite
Grain Size,<45 m
Viewing Geometry,35/0
Resolution,11-72 nm
Material Class,Phyllosilicate

Wavelength
2001.142,0.446917
2003.474,0.447844
2005.812,0.447481
2008.155,0.447531
2010.504,0.4480642
2012.858,0.448773
2015.217,0.449529
2017.582,0.449412
2019.952,0.450437
2022.328,0.450385
2024.709,0.449725
2027.096,0.450297
2029.488,0.450335
2031.886,0.449997
2034.289,0.450543
2036.698,0.451479
2039.113,0.450615
2041.533,0.45111
2043.959,0.450846
2046.391,0.451221
2048.828,0.451024
2051.271,0.450925
2053.72,0.451152
2056.175,0.450005
2058.635,0.449566
2061.101,0.448998
2063.573,0.4484869
2066.051,0.447196
2068.534,0.445996
2071.024,0.444915
2073.519,0.444265
2076.02,0.443669
2078.528,0.442493
2081.041,0.440747
2083.56,0.4386232
2086.085,0.437903
2088.617,0.438355
2091.154,0.437928
2093.697,0.437809
2096.247,0.436841
2098.803,0.436684
2101.364,0.4364945
2103.932,0.434815
2106.506,0.431088
2109.087,0.427667
2111.673,0.426843
2114.266,0.427208
2116.865,0.426913
2119.471,0.427018
2122.082,0.425119
2124.7,0.423247
2127.325,0.420949
2129.956,0.417746
2132.593,0.414636
2135.237,0.409403
2137.887,0.402137
2140.544,0.3944856
2143.207,0.383028
2145.876,0.370772
2148.553,0.358883
2151.235,0.349258
2153.925,0.3422
2156.621,0.337182
2159.324,0.334485
2162.033,0.335451
2164.749,0.337307
2167.472,0.339395
2170.202,0.342478
2172.938,0.344528
2175.682,0.345966
2178.432,0.346779
2181.189,0.346106
2183.952,0.342074
2186.723,0.335631
2189.501,0.330426
2192.285,0.326148
2195.077,0.32444
2197.876,0.320375
2200.682,0.307362
2203.494,0.282692
2206.314,0.258381
2209.141,0.276708
2211.975,0.319637
2214.817,0.350865
2217.665,0.370572
2220.521,0.382022
2223.384,0.388699
2226.254,0.392832
2229.132,0.3947099
2232.017,0.395435
2234.91,0.3935176
2237.809,0.392227
2240.717,0.39245
2243.631,0.393305
2246.554,0.393871
2249.483,0.394228
2252.421,0.39417
2255.365,0.391888
2258.318,0.390718
2261.278,0.389749
2264.246,0.388655
2267.221,0.386493
2270.204,0.384199
2273.195,0.381641
2276.194,0.379242
2279.201,0.376534
2282.215,0.374362
2285.237,0.372329
2288.268,0.370011
2291.306,0.368346
2294.352,0.3665198
2297.406,0.364711
2300.468,0.361661
2303.539,0.358157
2306.617,0.35429
2309.703,0.35074
2312.798,0.347352
2315.901,0.346932
2319.012,0.34588
2322.131,0.34457
2325.259,0.3441733
2328.395,0.345059
2331.54,0.347099
2334.692,0.348645
2337.854,0.348425
2341.023,0.345697
2344.201,0.342186
2347.388,0.3385859
2350.583,0.334894
2353.787,0.331491
2357.0,0.329554
2360.221,0.329989
2363.451,0.331373
2366.69,0.3308751
2369.937,0.32808
2373.194,0.323148
2376.459,0.318219
2379.733,0.314032
2383.016,0.312075
2386.308,0.314525
2389.609,0.318258
2392.919,0.3210433
2396.238,0.324674
2399.566,0.32772
2402.903,0.32858
2406.25,0.327936
2409.606,0.327078
2412.971,0.325249
2416.345,0.323097
2419.729,0.320493
2423.122,0.317709
2426.524,0.314727
2429.936,0.310358
2433.358,0.30513
2436.789,0.299895
2440.229,0.295862
2443.679,0.293575
2447.139,0.290924
2450.609,0.2893492
2454.088,0.287474
2457.577,0.285812
2461.076,0.285211
2464.585,0.284301
2468.104,0.283023
2471.632,0.2816275
2475.171,0.279424
2478.72,0.277246
2482.278,0.273436
2485.847,0.268935
2489.427,0.267294
2493.016,0.266397
2496.615,0.265712
2500.225,0.265306
2503.845,0.264135
2507.476,0.262261
2511.117,0.2604976
2514.769,0.2594482
2518.431,0.258587
2522.103,0.258125
2525.787,0.256827
2529.48,0.255864
2533.185,0.256024
2536.9,0.254598
2540.627,0.251915
2544.364,0.250726
2548.112,0.249717
2551.87,0.25055
2555.64,0.248169
2559.421,0.249948
2563.213,0.252114
2567.016,0.245975
2570.831,0.245694
2574.656,0.245309
2578.493,0.242522
2582.342,0.245577
2586.201,0.245222
2590.072,0.2412928
2593.955,0.249059
2597.849,0.239158
2601.755,0.237553
2605.672,0.240489
2609.601,0.233277
2613.542,0.229762
2617.495,0.234165
2621.459,0.226789
2625.435,0.221881
2629.424,0.222123
2633.424,0.213751
2637.437,0.203743
2641.461,0.198571
2645.498,0.19354
2649.547,0.185385
2653.609,0.181634
2657.682,0.1723567
2661.768,0.16474
2665.867,0.165032
2669.978,0.154196
2674.102,0.133665
2678.238,0.125678
2682.387,0.101045
2686.549,0.08876466
2690.724,0.07204551
2694.911,0.06849318
2699.112,0.05250828
2703.325,0.04826659
2707.552,0.04855057
2711.791,0.05403527
2716.044,0.04279434
2720.31,0.05223731
2724.589,0.04609803
2728.882,0.03500241
2733.188,0.03245496
2737.508,0.0297478
2741.841,0.03365085
2746.188,0.02809395
2750.549,0.02811618
2754.923,0.02745086
2759.311,0.01931525
2763.713,0.02118779
2768.129,0.02835643
2772.559,0.03605024
2777.003,0.03909253
2781.461,0.0407438
2785.934,0.04304149
2790.42,0.04349543
2794.922,0.04379164
2799.437,0.04500467
2803.967,0.04630578
2808.512,0.04548116
2813.071,0.0450645
2817.645,0.04441843
2822.233,0.04362709
2826.837,0.04393493
2831.455,0.04453454
2836.089,0.04492365
2840.737,0.04481428
2845.401,0.04520551
2850.08,0.0443627
2854.774,0.04436719
2859.484,0.04412637
2864.209,0.04424506
2868.949,0.04422026
2873.705,0.04379924
2878.477,0.04383228
2883.265,0.04357108
2888.068,0.04304486
2892.887,0.04335236
2897.723,0.04207309
2902.574,0.04136434
2907.441,0.04121311
2912.325,0.03986879
2917.225,0.04218353
2922.142,0.04297836
2927.075,0.04269802
2932.024,0.04313055
2936.99,0.04384769
2941.973,0.04425012
2946.973,0.04604076
2951.989,0.04568669
2957.023,0.04680755
2962.073,0.04495666
2967.141,0.04600863
2972.226,0.04701455
2977.328,0.04966358
2982.448,0.04856723
2987.586,0.04892921
2992.74,0.05101747
2997.913,0.0509094
3003.103,0.05286984
3008.312,0.05272579
3013.538,0.05419186
3018.782,0.05451851
3024.044,0.05526463
3029.325,0.05812815
3034.624,0.06074133
3039.942,0.05924615
3045.278,0.06119748
3050.632,0.05974684
3056.006,0.06036685
3061.398,0.06224216
3066.809,0.06442949
3072.239,0.06325604
3077.689,0.0641411
3083.157,0.06525975
3088.645,0.06667871
3094.153,0.06645849
3099.679,0.06838298
3105.226,0.06886062
3110.792,0.06881714
3116.378,0.07051424
3121.985,0.07147478
3127.611,0.07270944
3133.257,0.07388924
3138.924,0.07557934
3144.611,0.07717183
3150.319,0.07856487
3156.047,0.08033359
3161.796,0.08182329
3167.566,0.0836408
3173.356,0.08550191
3179.168,0.08903004
3185.001,0.09054727
3190.856,0.0918175
3196.731,0.09487369
3202.629,0.09592866
3208.548,0.09779093
3214.488,0.1034172
3220.451,0.105139
3226.436,0.105464
3232.443,0.106304
3238.472,0.108495
3244.523,0.1111872
3250.598,0.11439
3256.694,0.118066
3262.814,0.116665
3268.956,0.119537
3275.122,0.1209973
3281.31,0.1231007
3287.522,0.125934
3293.757,0.128979
3300.016,0.131402
3306.299,0.133223
3312.605,0.134448
3318.936,0.137041
3325.29,0.14102
3331.669,0.144156
3338.072,0.142617
3344.499,0.1451457
3350.952,0.1476
3357.429,0.146966
3363.931,0.148294
3370.458,0.147723
3377.01,0.147738
3383.588,0.150643
3390.191,0.154008
3396.82,0.156549
3403.475,0.157623
3410.156,0.156855
3416.862,0.15616
3423.596,0.162028
3430.355,0.167221
3437.141,0.173219
3443.954,0.179623
3450.794,0.180026
3457.661,0.182977
3464.556,0.185469
3471.477,0.18569
3478.426,0.186701
3485.403,0.188836
3492.408,0.191562
3499.441,0.188693
3506.502,0.191145
3513.592,0.1972106
3520.71,0.203333
3527.857,0.207962
3535.032,0.2134894
3542.237,0.214851
3549.471,0.21674
3556.735,0.2195339
3564.028,0.222258
3571.351,0.225146
3578.704,0.226899
3586.088,0.229944
3593.501,0.23164
3600.946,0.233832
3608.421,0.235145
3615.926,0.238307
3623.463,0.239703
3631.032,0.241881
3638.632,0.244107
3646.263,0.2459055
3653.927,0.247957
3661.623,0.248422
3669.351,0.249542
3677.111,0.249773
3684.905,0.249181
3692.731,0.247947
3700.59,0.249205
3708.483,0.252634
3716.409,0.257976
3724.37,0.262406
3732.364,0.265424
3740.392,0.267014
3748.455,0.269129
3756.553,0.272503
3764.685,0.274202
3772.853,0.2759961
3781.056,0.2777931
3789.294,0.27915
3797.568,0.280872
3805.879,0.282435
3814.225,0.283797
3822.609,0.285166
3831.029,0.286416
3839.486,0.287619
3847.98,0.288914
3856.512,0.290315
3865.081,0.291449
3873.689,0.292694
3882.334,0.294063
3891.019,0.295441
3899.742,0.29675
3908.504,0.297792
3917.305,0.298921
3926.146,0.299953
3935.027,0.3008506
3943.948,0.3017029
3952.909,0.302816
3961.911,0.30396
3970.954,0.305171
3980.038,0.306282
3989.163,0.307459
3998.33,0.308876
4007.54,0.30984
4016.791,0.310484
4026.086,0.310897
4035.423,0.311821
4044.804,0.312699
4054.228,0.313502
4063.695,0.314285
4073.207,0.315071
4082.764,0.315891
4092.365,0.316694
4102.012,0.317387
4111.703,0.318237
4121.441,0.319215
4131.224,0.320315
4141.054,0.321083
4150.931,0.322101
4160.854,0.323322
4170.826,0.324891
4180.844,0.326297
4190.911,0.329168
4201.026,0.337952
4211.19,0.357502
4221.404,0.381788
4231.666,0.402202
4241.979,0.407213
4252.341,0.38685
4262.754,0.3799876
4273.219,0.397513
4283.734,0.3974836
4294.301,0.397093
4304.92,0.393012
4315.592,0.384586
4326.317,0.377616
4337.095,0.371917
4347.926,0.368405
4358.811,0.367418
4369.751,0.367249
4380.746,0.368187
4391.796,0.3706888
4402.902,0.3735136
4414.064,0.376334
4425.282,0.3789389
4436.558,0.381246
4447.891,0.383492
4459.281,0.385563
4470.73,0.387534
4482.238,0.389306
4493.805,0.391682
4505.431,0.394455
4517.118,0.397651
4528.865,0.400909
4540.674,0.403806
4552.543,0.406238
4564.475,0.408561
4576.47,0.410104
4588.527,0.411585
4600.648,0.4131526
4612.833,0.414387
4625.082,0.415106
4637.397,0.415902
4649.777,0.41734
4662.223,0.419493
4674.735,0.422772
4687.315,0.426451
4699.962,0.430106
4712.678,0.4344223
4725.463,0.438915
4738.316,0.442755
4751.24,0.446568
4764.234,0.450057
4777.299,0.453096
4790.436,0.456588
4803.645,0.458346
4816.927,0.460563
4830.283,0.462673
4843.712,0.466247
4857.216,0.466826
4870.795,0.469188
4884.451,0.471355
4898.182,0.475074
4911.991,0.476735
4925.878,0.479717
4939.844,0.482937
4953.888,0.487754
4968.013,0.487508
4982.218,0.488671
4996.504,0.490722
5010.872,0.494649
5025.323,0.50028
5039.857,0.496704
5054.475,0.49759
5069.179,0.498657
5083.967,0.5043163
5098.842,0.5011398
5113.804,0.502842
5128.854,0.50436
5143.992,0.515924
5159.22,0.511599
5174.538,0.514249
5189.947,0.520171
5205.448,0.5341968
5221.041,0.533299
5236.728,0.538302
5252.51,0.538837
5268.386,0.54535
5284.358,0.555168
5300.428,0.557193
5316.595,0.55694
5332.86,0.56037
5349.226,0.587566
5365.692,0.57122
5382.259,0.5714696
5398.928,0.574121
5415.701,0.599816
5432.579,0.5918819
5449.561,0.591154
5466.65,0.6156695
5483.846,0.605532
5501.15,0.599736
5518.564,0.61475
5536.087,0.619453
5553.723,0.651924
5571.47,0.572788
5589.332,0.576522
5607.307,0.592265
5625.399,0.60268
5643.607,0.627255
5661.934,0.6155835
5680.379,0.627161
5698.945,0.633464
5717.633,0.655118
5736.443,0.651089
5755.377,0.663135
5774.436,0.666893
5793.621,0.649087
5812.934,0.680922
5832.376,0.683296
5851.948,0.677891
5871.652,0.7099658
5891.488,0.717592
5911.459,0.687821
5931.565,0.728023
5951.809,0.703537
5972.19,0.715522
5992.711,0.7131534
6013.374,0.7064604
6034.179,0.721551
6055.129,0.746646
6076.224,0.732095
6097.466,0.72689
6118.857,0.734597
6140.398,0.729384
6162.091,0.737275
6183.938,0.744863
6205.94,0.731503
6228.099,0.7336
6250.416,0.734815
6272.893,0.739214
6295.533,0.740076
6318.336,0.744924
6341.304,0.769746
6364.44,0.7706152
6387.745,0.769058
6411.221,0.821002
6434.869,0.783809
6458.693,0.785224
6482.693,0.829507
6506.872,0.801843
6531.231,0.79734
6555.774,0.81973
6580.501,0.82563
6605.415,0.812943
6630.518,0.845807
6655.812,0.806852
6681.3,0.813804
6706.983,0.824999
6732.864,0.8061755
6758.945,0.813854
6785.229,0.834227
6811.718,0.81734
6838.413,0.826863
6865.319,0.8405974
6892.437,0.8226364
6919.769,0.81791
6947.319,0.8340801
6975.089,0.831328
7003.081,0.8315042
7031.298,0.846349
7059.743,0.838204
7088.419,0.835708
7117.329,0.841723
7146.475,0.854353
7175.86,0.848709
7205.487,0.852158
7235.36,0.848451
7265.481,0.858961
7295.854,0.855633
7326.481,0.865016
7357.366,0.860181
7388.512,0.861058
7419.922,0.862771
7451.601,0.8738927
7483.55,0.869983
7515.774,0.87017
7548.277,0.873441
7581.061,0.8783
7614.131,0.878466
7647.491,0.879076
7681.143,0.880988
7715.093,0.883101
7749.343,0.885861
7783.899,0.887187
7818.764,0.889297
7853.942,0.892486
7889.437,0.894643
7925.254,0.897527
7961.398,0.898997
7997.872,0.900983
8034.682,0.903759
8071.832,0.905701
8109.326,0.908088
8147.169,0.910148
8185.368,0.911812
8223.925,0.91376
8262.847,0.915015
8302.139,0.916779
8341.805,0.91866
8381.852,0.920234
8422.285,0.922297
8463.109,0.923563
8504.331,0.925058
8545.955,0.926469
8587.989,0.927957
8630.437,0.9295809
8673.307,0.930997
8716.604,0.932563
8760.335,0.933969
8804.507,0.9355171
8849.125,0.936801
8894.198,0.9382
8939.732,0.939408
8985.733,0.940498
9032.21,0.941196
9079.17,0.94183
9126.62,0.942464
9174.568,0.942569
9223.022,0.942685
9271.99,0.942568
9321.48,0.942889
9371.5,0.943423
9422.06,0.943732
9473.167,0.944366
9524.832,0.94546
9577.062,0.946329
9629.868,0.947153
9683.259,0.947921
9737.244,0.948514
9791.834,0.9492661
9847.039,0.950398
9902.869,0.951091
9959.336,0.951735
10016.449,0.952856
10074.221,0.953725
10132.662,0.954716
10191.784,0.955517
10251.6,0.956364
10312.121,0.957389
10373.36,0.958178
10435.331,0.958849
10498.045,0.959222
10561.517,0.959661
10625.761,0.959925
10690.79,0.960264
10756.619,0.960599
10823.264,0.961215
10890.738,0.961355
10959.058,0.9615491
11028.24,0.961979
11098.301,0.961898
11169.256,0.962015
11241.124,0.962578
11313.921,0.962828
11387.667,0.962757
11462.38,0.96334
11538.079,0.963555
11614.783,0.963636
11692.513,0.9639474
11771.29,0.964441
11851.134,0.964868
11932.068,0.96557
12014.114,0.965541
12097.296,0.965696
12181.636,0.965536
12267.16,0.965512
12353.892,0.965593
12441.859,0.966346
12531.086,0.966389
12621.601,0.966678
12713.432,0.966593
12806.608,0.967256
12901.159,0.967794
12997.116,0.968012
13094.51,0.96795
13193.373,0.967993
13293.74,0.968386
13395.644,0.968512
13499.121,0.968462
13604.208,0.967939
13710.943,0.96834
13819.365,0.968025
13929.515,0.966841
14041.433,0.966341
14155.163,0.96517
14270.749,0.963735
14388.237,0.962145
14507.674,0.959398
14629.109,0.955035
14752.594,0.948741
14878.179,0.9422309
15005.92,0.9287522
15135.871,0.908047
15268.092,0.877896
15402.642,0.83212
15539.583,0.769297
15678.979,0.6915584
15820.897,0.61097
15965.407,0.532447